seconds_elapsed,z,y,x
0.0248974609375,-0.12441570311784744,-0.09484809637069702,0.10887283831834793
0.03487744140625,-0.18161316215991974,-0.0801883339881897,0.1568201184272766
0.044887451171875,-0.21223951876163483,-0.13907481729984283,0.19658537209033966
0.054896484375,-0.22846028208732605,-0.20897884666919708,0.23060254752635956
0.06487646484375,-0.23630648851394653,-0.3043525218963623,0.27211135625839233
0.074885498046875,-0.22973781824111938,-0.4248653054237366,0.31188851594924927
0.0848955078125,-0.2222583293914795,-0.5495558381080627,0.35051873326301575
0.094874267578125,-0.22426480054855347,-0.6703777313232422,0.39043205976486206
0.10488427734375,-0.2143373340368271,-0.76902174949646,0.4454527199268341
0.11489404296875,-0.19458918273448944,-0.8618547916412354,0.5169214010238647
0.124873291015625,-0.19978047907352448,-0.995034396648407,0.5901162624359131
0.13488330078125,-0.2624396085739136,-1.0752359628677368,0.6934530138969421
0.144893310546875,-0.3584790527820587,-1.0795785188674927,0.7652854323387146
0.154872314453125,-0.48301249742507935,-1.0363450050354004,0.7252706289291382
0.16488232421875,-0.5722408890724182,-0.9155293107032776,0.607087254524231
0.174891357421875,-0.5648261308670044,-0.8497292399406433,0.5160247087478638
0.184871337890625,-0.49840158224105835,-0.9514127373695374,0.5034140944480896
0.19488037109375,-0.4442081153392792,-1.1812238693237305,0.585166871547699
0.204890380859375,-0.35841837525367737,-1.446657657623291,0.6922483444213867
0.214869384765625,-0.2947707772254944,-1.6710755825042725,0.7696306109428406
0.22487939453125,-0.2924724817276001,-1.8687630891799927,0.8016284704208374
0.2348583984375,-0.26490917801856995,-1.997450351715088,0.7696502208709717
0.244868408203125,-0.21577385067939758,-2.107823371887207,0.7449856400489807
0.254878173828125,-0.11884445697069168,-2.2668001651763916,0.7785929441452026
0.264857421875,-0.012150496244430542,-2.4251787662506104,0.8123003244400024
0.274867431640625,0.06720002740621567,-2.5404324531555176,0.8483000993728638
0.28487744140625,0.14869463443756104,-2.697847843170166,1.0264863967895508
0.2948564453125,0.28216010332107544,-3.004977226257324,1.2500659227371216
0.304866455078125,0.3971138596534729,-3.2817180156707764,1.3648196458816528
0.31487646484375,0.46451228857040405,-3.4130430221557617,1.4441351890563965
0.32485546875,0.5764439105987549,-3.5397777557373047,1.5687304735183716
0.334865478515625,0.7650219798088074,-3.6736745834350586,1.669512152671814
0.344874267578125,1.034108281135559,-3.7747888565063477,1.6572121381759644
0.3548544921875,1.3072940111160278,-3.701293468475342,1.4759856462478638
0.36486328125,1.4970271587371826,-3.462609052658081,1.2625676393508911
0.374873046875,1.6176867485046387,-3.1118004322052,1.131731390953064
0.384852294921875,1.7332003116607666,-2.7054097652435303,1.0768380165100098
0.3948623046875,1.8737022876739502,-2.338883638381958,1.1124210357666016
0.404872314453125,2.0357015132904053,-2.056542158126831,1.181113839149475
0.414851318359375,2.2356667518615723,-1.9025118350982666,1.2424285411834717
0.424861328125,2.380598783493042,-1.906820297241211,1.280470371246338
0.43484033203125,2.4685211181640625,-2.011244058609009,1.3586853742599487
0.444850341796875,2.510498046875,-2.107116222381592,1.4252936840057373
0.4548603515625,2.4838531017303467,-2.1313135623931885,1.4629850387573242
0.464839111328125,2.410918951034546,-2.0619611740112305,1.5740764141082764
0.474849365234375,2.2912209033966064,-1.8261741399765015,1.7333836555480957
0.4848583984375,2.136119842529297,-1.4807072877883911,1.7906296253204346
0.49483837890625,1.9843862056732178,-1.1115481853485107,1.7158175706863403
0.504847412109375,1.8433347940444946,-0.7764806747436523,1.5443499088287354
0.514857177734375,1.7179763317108154,-0.46157994866371155,1.2911511659622192
0.52483642578125,1.6015580892562866,-0.18034376204013824,0.9412280321121216
0.534846435546875,1.490325927734375,0.044536832720041275,0.5240100622177124
0.5448564453125,1.3673254251480103,0.20480772852897644,0.05939982458949089
0.55483544921875,1.226547122001648,0.36149078607559204,-0.42464450001716614
0.56483984375,1.0583605766296387,0.521612286567688,-0.8721466660499573
0.574849609375,0.8834390044212341,0.6500157713890076,-1.2497926950454712
0.584828857421875,0.707936704158783,0.7466940879821777,-1.549190878868103
0.5948388671875,0.5471448302268982,0.8532347083091736,-1.7883671522140503
0.6048486328125,0.4066615104675293,0.9454274773597717,-1.9850727319717407
0.614827880859375,0.30296772718429565,1.0418365001678467,-2.1510026454925537
0.624837646484375,0.24312277138233185,1.1440006494522095,-2.318464517593384
0.63481689453125,0.19638614356517792,1.2557225227355957,-2.4852941036224365
0.64482666015625,0.18155738711357117,1.349650263786316,-2.6356332302093506
0.654835693359375,0.18389327824115753,1.3851672410964966,-2.7831568717956543
0.664815673828125,0.18096566200256348,1.3973373174667358,-2.9328219890594482
0.67482470703125,0.17674539983272552,1.4205477237701416,-3.0817618370056152
0.6848349609375,0.17553578317165375,1.4505575895309448,-3.258507490158081
0.694813720703125,0.15608640015125275,1.5229133367538452,-3.503373384475708
0.704823974609375,0.11053702235221863,1.6171448230743408,-3.7884418964385986
0.714833740234375,0.057138342410326004,1.6689249277114868,-4.074877738952637
0.724812744140625,-0.009537889622151852,1.6953895092010498,-4.345617294311523
0.73482275390625,-0.06769562512636185,1.7054924964904785,-4.59572696685791
0.74483251953125,-0.13400407135486603,1.7141053676605225,-4.839541435241699
0.754811767578125,-0.2201555222272873,1.747801423072815,-5.045173645019531
0.764821533203125,-0.3131389617919922,1.7867320775985718,-5.228362083435059
0.77483056640625,-0.3951544761657715,1.8531100749969482,-5.403992176055908
0.784810546875,-0.45666682720184326,1.9757236242294312,-5.5860161781311035
0.794819580078125,-0.5105870366096497,2.0982489585876465,-5.801239967346191
0.804829833984375,-0.5493996739387512,2.157839298248291,-6.049030780792236
0.81480859375,-0.5718847513198853,2.182124376296997,-6.317174434661865
0.82481884765625,-0.6476871371269226,2.1521642208099365,-6.613846778869629
0.83482861328125,-0.7631843090057373,2.0380589962005615,-6.879666328430176
0.844807861328125,-0.8918048739433289,1.8931702375411987,-7.029514789581299
0.85481787109375,-0.9974866509437561,1.690456509590149,-7.102468967437744
0.864796630859375,-1.0674668550491333,1.4956263303756714,-7.118695259094238
0.874806884765625,-1.16463303565979,1.337990641593933,-7.0862345695495605
0.884816650390625,-1.307557225227356,1.2036863565444946,-7.043506622314453
0.8947958984375,-1.53837251663208,1.110161304473877,-6.946529865264893
0.9048056640625,-1.88655686378479,1.086756944656372,-6.874018669128418
0.91481591796875,-2.314361810684204,1.0987601280212402,-7.018901824951172
0.924794677734375,-2.6921839714050293,1.1692215204238892,-7.3429412841796875
0.9348046875,-3.0020058155059814,1.2331517934799194,-7.734004497528076
0.94481396484375,-3.286540985107422,1.2290699481964111,-8.118035316467285
0.954793701171875,-3.560143232345581,1.1403579711914062,-8.36961555480957
0.964802978515625,-3.8598897457122803,0.921145498752594,-8.382637023925781
0.974812744140625,-4.207776069641113,0.5642391443252563,-8.18361759185791
0.98479150390625,-4.5485358238220215,0.24196897447109222,-7.894977569580078
0.9948017578125,-4.9031243324279785,0.06165502965450287,-7.609377384185791
1.0048115234375,-5.333433628082275,0.011754048988223076,-7.362104892730713
1.014790771484375,-5.729350566864014,0.050097182393074036,-7.228100299835205
1.024800537109375,-6.066152572631836,0.19732391834259033,-7.169820308685303
1.034810791015625,-6.356878757476807,0.31256890296936035,-7.044105052947998
1.04478955078125,-6.612091541290283,0.32678884267807007,-6.776014804840088
1.054799560546875,-6.833564758300781,0.20335325598716736,-6.406315803527832
1.064778564453125,-6.99833345413208,-0.13275818526744843,-5.969232082366943
1.07478857421875,-7.092792987823486,-0.5918221473693848,-5.403979778289795
1.0847978515625,-7.150759696960449,-1.0970174074172974,-4.72639274597168
1.094777587890625,-7.188044548034668,-1.5284503698349,-3.9747488498687744
1.104787841796875,-7.219284534454346,-1.7706025838851929,-3.2726340293884277
1.114796875,-7.230330944061279,-1.75984525680542,-2.7552006244659424
1.12477685546875,-7.243804454803467,-1.5666909217834473,-2.424509048461914
1.134785888671875,-7.263553619384766,-1.2713656425476074,-2.1398003101348877
1.144795654296875,-7.237909317016602,-0.9483077526092529,-1.8234190940856934
1.15477490234375,-7.090341567993164,-0.6803471446037292,-1.5811610221862793
1.16478466796875,-6.819270610809326,-0.49098679423332214,-1.458324670791626
1.174794921875,-6.540318965911865,-0.35384729504585266,-1.3934072256088257
1.184773681640625,-6.314514636993408,-0.25404295325279236,-1.3647551536560059
1.19478369140625,-6.248104572296143,-0.15943261981010437,-1.279354453086853
1.2047939453125,-6.2436628341674805,-0.13326546549797058,-1.1408714056015015
1.214772705078125,-6.19809627532959,-0.13114646077156067,-0.985142707824707
1.224782958984375,-6.183578014373779,-0.059224605560302734,-0.8387244939804077
1.234791748046875,-6.203898906707764,0.06893984228372574,-0.7541437745094299
1.24477197265625,-6.2180399894714355,0.35081732273101807,-0.7735497355461121
1.25478076171875,-6.172966957092285,0.7549874782562256,-0.8990362882614136
1.264760986328125,-6.074988842010498,1.2231136560440063,-1.019844651222229
1.274769775390625,-5.993393898010254,1.612384557723999,-1.0253691673278809
1.284779541015625,-5.8498687744140625,1.8325169086456299,-0.7120962738990784
1.2947587890625,-5.677576065063477,1.8175222873687744,-0.04207156226038933
1.3047685546875,-5.55635404586792,1.6723387241363525,0.7804065942764282
1.31477880859375,-5.301956653594971,1.470296025276184,1.2460335493087769
1.324757568359375,-5.152575492858887,1.4711953401565552,1.4192404747009277
1.334767578125,-5.039892673492432,1.786917805671692,1.4577484130859375
1.34477783203125,-4.761270046234131,2.2580976486206055,1.2363632917404175
1.354756591796875,-4.533998012542725,2.8507938385009766,0.8571833372116089
1.364766845703125,-4.287743091583252,3.380669593811035,0.5157485008239746
1.374776611328125,-3.8944032192230225,3.6797475814819336,0.336840957403183
1.384755859375,-3.409761667251587,3.756873369216919,0.4190431535243988
1.394765625,-2.895016670227051,3.527660608291626,0.7234485745429993
1.404774658203125,-2.511366128921509,3.06583571434021,1.2396067380905151
1.414754638671875,-2.218235969543457,2.5031979084014893,1.9018144607543945
1.424763671875,-1.9699252843856812,2.082371950149536,2.5106027126312256
1.43477392578125,-1.938896656036377,1.980806827545166,2.8776283264160156
1.444752685546875,-2.0660622119903564,2.221445083618164,3.0139472484588623
1.4547626953125,-2.243069648742676,2.642179012298584,2.9152138233184814
1.46474169921875,-2.5357112884521484,2.865030527114868,2.687504529953003
1.474751708984375,-2.8304107189178467,2.8438949584960938,2.484895706176758
1.484761962890625,-3.038053035736084,2.7515525817871094,2.3753976821899414
1.49474072265625,-3.25716495513916,2.5429821014404297,2.3948159217834473
1.5047509765625,-3.4368093013763428,2.148841381072998,2.5305240154266357
1.5147607421875,-3.51850962638855,1.65309739112854,2.728745460510254
1.524739990234375,-3.5344314575195312,0.9354650378227234,2.8940207958221436
1.534749755859375,-3.644801616668701,-0.005985261406749487,2.917079448699951
1.544758544921875,-3.904644012451172,-1.0648914575576782,2.751850128173828
1.55473876953125,-4.300967216491699,-1.8560264110565186,2.251340866088867
1.564732177734375,-4.799413204193115,-2.316155195236206,1.4961766004562378
1.5747421875,-5.3581976890563965,-2.651188611984253,0.6457902193069458
1.58472119140625,-5.875336170196533,-2.936469316482544,-0.4208235740661621
1.59473095703125,-6.304274082183838,-3.291139841079712,-1.6083520650863647
1.6047412109375,-6.681356430053711,-3.728158950805664,-2.839381456375122
1.61472021484375,-7.023460865020752,-4.057057857513428,-4.083733558654785
1.624730224609375,-7.332671642303467,-4.317537307739258,-5.115914821624756
1.634740234375,-7.630830764770508,-4.625242233276367,-5.89345645904541
1.64471923828125,-7.924855709075928,-4.920385837554932,-6.557803153991699
1.65472900390625,-8.176426887512207,-5.108497619628906,-7.057819366455078
1.6647080078125,-8.400726318359375,-5.160645961761475,-7.465743064880371
1.674718017578125,-8.664759635925293,-5.189912796020508,-7.868804931640625
1.68472802734375,-8.850401878356934,-5.169597148895264,-8.145339012145996
1.69470703125,-8.766592025756836,-5.183176517486572,-8.242297172546387
1.704717041015625,-8.434992790222168,-5.2029500007629395,-8.331303596496582
1.714725830078125,-7.901589393615723,-5.43287992477417,-8.475336074829102
1.7247060546875,-7.292553901672363,-6.041571617126465,-8.706039428710938
1.734715087890625,-6.569593906402588,-6.479547500610352,-8.730277061462402
1.74472509765625,-5.636021614074707,-6.80172061920166,-8.344799041748047
1.7547041015625,-4.546425819396973,-7.082944869995117,-7.64138126373291
1.764714111328125,-3.218522548675537,-7.19761848449707,-6.615291595458984
1.77472412109375,-1.6484812498092651,-6.931239604949951,-5.47517204284668
1.784703125,0.057684075087308884,-6.240840435028076,-4.746074676513672
1.794713134765625,1.8463534116744995,-5.2174973487854,-4.583223342895508
1.804722900390625,3.6557347774505615,-4.595144271850586,-4.785710334777832
1.8147021484375,5.664516925811768,-4.550307750701904,-5.045168876647949
1.824712158203125,7.47808313369751,-5.179086208343506,-5.3564934730529785
1.83472119140625,9.521385192871094,-5.7699079513549805,-5.650883674621582
1.844701171875,11.725685119628906,-4.966914176940918,-6.164657115936279
1.85471044921875,13.69219970703125,-2.956730842590332,-6.544801235198975
1.864690185546875,15.668798446655273,-0.003132294397801161,-6.640999794006348
1.87469921875,17.048873901367188,2.281177520751953,-6.45716667175293
1.884709228515625,18.156749725341797,3.88545823097229,-5.811489582061768
1.894689208984375,19.218259811401367,5.136494159698486,-4.789073944091797
1.904697998046875,20.42948341369629,5.987900257110596,-3.0150179862976074
1.9147080078125,21.880088806152344,6.886957168579102,-0.5657920837402344
1.92468701171875,22.90212059020996,7.5051045417785645,2.313683271408081
1.934697021484375,23.286897659301758,7.648616790771484,6.438876152038574
1.94470703125,22.279029846191406,7.212373733520508,10.097777366638184
1.95468603515625,20.900644302368164,7.248912334442139,12.10552978515625
1.964696044921875,20.24172592163086,6.022407531738281,13.81001091003418
1.9747060546875,20.97144889831543,3.398216724395752,15.995140075683594
1.98468505859375,23.174379348754883,0.8491230607032776,17.504297256469727
1.994695068359375,22.419586181640625,-2.6205198764801025,16.37386703491211
2.0047041015625,18.222291946411133,-5.966458797454834,14.826155662536621
2.01468408203125,12.237096786499023,-6.632033824920654,12.252251625061035
2.024693115234375,6.43228006362915,-5.0020880699157715,8.976415634155273
2.034703125,2.157808303833008,-3.8703322410583496,9.276250839233398
2.04468212890625,-0.005588265135884285,-1.565484881401062,10.735308647155762
2.054692138671875,-0.458897203207016,2.227651357650757,11.391446113586426
2.064671142578125,-0.20608435571193695,5.074995517730713,11.689240455627441
2.07468115234375,0.14952653646469116,6.188591957092285,12.052053451538086
2.084691162109375,0.5761926174163818,5.544619083404541,11.641227722167969
2.094670166015625,-0.1757088154554367,3.900519371032715,10.94815731048584
2.10468017578125,-1.4789255857467651,2.929929733276367,10.441644668579102
2.114690185546875,-2.631742238998413,2.4860103130340576,9.37683391571045
2.124669189453125,-3.6933043003082275,2.797499895095825,8.717769622802734
2.13467919921875,-4.413163185119629,3.52645206451416,8.621578216552734
2.144689208984375,-4.741367340087891,4.69765043258667,8.708257675170898
2.154668212890625,-4.623107433319092,5.938421249389648,8.658573150634766
2.16467822265625,-4.229372501373291,6.638833045959473,8.437578201293945
2.17468701171875,-3.7887070178985596,6.584885597229004,8.186983108520508
2.184667236328125,-3.442009925842285,5.897246360778809,7.747171878814697
2.194676025390625,-3.431062936782837,4.743985652923584,7.053882122039795
2.20468603515625,-3.616101026535034,3.434133529663086,6.240911960601807
2.2146650390625,-3.6982080936431885,2.424720525741577,5.462368488311768
2.224675048828125,-3.6773734092712402,2.0004005432128906,4.782567977905273
2.23468505859375,-3.6359176635742188,2.1843056678771973,4.2466535568237305
2.2446640625,-3.558094024658203,2.613330125808716,3.915752410888672
2.254674072265625,-3.496560573577881,3.0493526458740234,3.8057243824005127
2.264653076171875,-3.565455436706543,3.3564300537109375,3.7202374935150146
2.2746630859375,-3.7752106189727783,3.558418035507202,3.467813014984131
2.284673095703125,-4.037608623504639,3.691361904144287,3.057535171508789
2.29465185546875,-4.379347324371338,3.629849672317505,2.626166582107544
2.304662109375,-4.736355781555176,3.2515339851379395,2.2474586963653564
2.314671142578125,-5.032962322235107,2.6564979553222656,1.912558674812317
2.324651123046875,-5.146129131317139,2.0218513011932373,1.4901376962661743
2.33466015625,-5.135709762573242,1.8018981218338013,0.8779863119125366
2.344670166015625,-4.971080303192139,1.856163740158081,0.2604067325592041
2.354649169921875,-4.6633100509643555,1.847820520401001,-0.19906722009181976
2.3646591796875,-4.248141765594482,1.6266825199127197,-0.46291908621788025
2.374669189453125,-3.831061601638794,1.1945621967315674,-0.5476450324058533
2.384648193359375,-3.568831205368042,0.6139217019081116,-0.5662972331047058
2.394658203125,-3.496065139770508,0.012414537370204926,-0.6030277013778687
2.404668212890625,-3.5257396697998047,-0.5893805027008057,-0.6412019729614258
2.414647216796875,-3.620173931121826,-1.22384512424469,-0.6870141625404358
2.4246572265625,-3.7179179191589355,-1.8702366352081299,-0.7428355813026428
2.434635986328125,-3.6502881050109863,-2.2375123500823975,-0.932898998260498
2.444646240234375,-3.4884772300720215,-2.2272469997406006,-1.2404820919036865
2.454656005859375,-3.163303852081299,-1.9687098264694214,-1.411406397819519
2.464635009765625,-2.6973369121551514,-1.5947431325912476,-1.4185833930969238
2.47464501953125,-2.2686069011688232,-1.2428985834121704,-1.318544626235962
2.484654052734375,-2.018301010131836,-0.9666273593902588,-1.0992645025253296
2.494634033203125,-1.9764955043792725,-0.724090576171875,-0.9539041519165039
2.50464306640625,-2.136805534362793,-0.6050062775611877,-0.9193339347839355
2.514653076171875,-2.3502776622772217,-0.633456826210022,-0.8897520899772644
2.524632080078125,-2.601525068283081,-0.7946755290031433,-0.9008138179779053
2.53464208984375,-2.892775297164917,-1.045269250869751,-0.9808987379074097
2.544652099609375,-3.072277069091797,-1.2955245971679688,-1.0802088975906372
2.554630859375,-3.0110104084014893,-1.2228899002075195,-1.1487390995025635
2.56466259765625,-2.800408363342285,-0.9781032800674438,-1.1247320175170898
2.57467236328125,-2.587563991546631,-0.7740758657455444,-0.9279182553291321
2.584651611328125,-2.3812167644500732,-0.6729196906089783,-0.5640953183174133
2.59466162109375,-2.2207469940185547,-0.6083464026451111,-0.16122962534427643
2.604670166015625,-2.178992748260498,-0.5582451224327087,0.1650768518447876
2.614650634765625,-2.2712295055389404,-0.4922967851161957,0.40170323848724365
2.624659423828125,-2.451133966445923,-0.42299067974090576,0.5400371551513672
2.634639404296875,-2.675593137741089,-0.38230690360069275,0.6028041243553162
2.6446484375,-2.934842109680176,-0.3594716191291809,0.650638222694397
2.654658447265625,-3.195343255996704,-0.3442634642124176,0.701092004776001
2.664637451171875,-3.4306724071502686,-0.32185110449790955,0.7930070161819458
2.6746474609375,-3.6307132244110107,-0.29980212450027466,0.9260973930358887
2.684657470703125,-3.7716562747955322,-0.28923869132995605,1.0569963455200195
2.69463623046875,-3.8785409927368164,-0.32939913868904114,1.1403928995132446
2.704646484375,-3.926720142364502,-0.4077344238758087,1.18210768699646
2.714656494140625,-3.8976502418518066,-0.5256302952766418,1.1727863550186157
2.724635498046875,-3.879267692565918,-0.6469361782073975,1.1236218214035034
2.7346455078125,-3.9552745819091797,-0.7135528326034546,1.049763798713684
2.744655517578125,-4.098955154418945,-0.6909487247467041,0.9351119995117188
2.754634521484375,-4.225696563720703,-0.6043025851249695,0.8433260321617126
2.76464453125,-4.318610191345215,-0.48155614733695984,0.811095654964447
2.774653564453125,-4.390311241149902,-0.33918502926826477,0.7507002353668213
2.78463330078125,-4.3858513832092285,-0.28534817695617676,0.577238917350769
2.794642578125,-4.268897533416748,-0.39246276021003723,0.36019477248191833
2.804652587890625,-4.076251029968262,-0.6682117581367493,0.20325946807861328
2.814631591796875,-3.8569414615631104,-1.03852379322052,0.09530006349086761
2.8246416015625,-3.6537489891052246,-1.4174327850341797,0.08902512490749359
2.834620361328125,-3.471262216567993,-1.6856844425201416,0.22384996712207794
2.844630615234375,-3.328889846801758,-1.7240475416183472,0.38209500908851624
2.854640625,-3.214891195297241,-1.5146185159683228,0.4642215669155121
2.86461962890625,-3.037379264831543,-1.1700193881988525,0.5706223249435425
2.874629638671875,-2.8099842071533203,-0.8537900447845459,0.6085726022720337
2.884639404296875,-2.5182888507843018,-0.6593379974365234,0.532720685005188
2.894618408203125,-2.1857070922851562,-0.5472709536552429,0.3622475266456604
2.904628173828125,-1.836100697517395,-0.5184265375137329,0.16630783677101135
2.914637451171875,-1.5490530729293823,-0.4711706340312958,0.009698267094790936
2.9246171875,-1.3779350519180298,-0.3909900486469269,-0.027406491339206696
2.93462646484375,-1.289128065109253,-0.25218304991722107,0.028792956843972206
2.944636474609375,-1.2099487781524658,-0.05512644723057747,0.024037882685661316
2.954616455078125,-1.115574836730957,0.16896550357341766,-0.06989394128322601
2.96462548828125,-1.0139076709747314,0.3898363709449768,-0.17560333013534546
2.974635498046875,-0.8923256993293762,0.5222506523132324,-0.20879359543323517
2.984614501953125,-0.7403143644332886,0.5168167352676392,-0.15583983063697815
2.99462451171875,-0.6167439222335815,0.3779219388961792,-0.1269807517528534
3.004634521484375,-0.559477686882019,0.18871581554412842,-0.14371845126152039
3.014613525390625,-0.6171232461929321,-0.035867225378751755,-0.15520386397838593
3.02462353515625,-0.7152069211006165,-0.136202871799469,-0.08744078874588013
3.0346025390625,-0.8037253022193909,-0.0731569156050682,-0.0047389729879796505
3.0446123046875,-0.8165183663368225,0.17003469169139862,0.006185846868902445
3.05462255859375,-0.760338544845581,0.49726274609565735,-0.05813216790556908
3.064601318359375,-0.6594894528388977,0.7267798185348511,-0.12464674562215805
3.074611572265625,-0.5369741916656494,0.8087271451950073,-0.16316963732242584
3.08462060546875,-0.35862526297569275,0.7720814943313599,-0.195193350315094
3.0946005859375,-0.15009735524654388,0.5729631185531616,-0.24626247584819794
3.104609619140625,-0.036308471113443375,0.36366450786590576,-0.2579263150691986
3.11461962890625,-0.043693069368600845,0.1927862912416458,-0.15387699007987976
3.124598388671875,-0.08216588944196701,0.11625609546899796,0.08237629383802414
3.1346083984375,-0.10744000971317291,0.20791813731193542,0.3167343735694885
3.144618408203125,-0.13163483142852783,0.3654758036136627,0.3685493469238281
3.154597412109375,-0.11853278428316116,0.5455281138420105,0.2681102156639099
3.164607177734375,-0.01579468697309494,0.6276631951332092,0.1741722673177719
3.174617431640625,0.12333323061466217,0.5368220806121826,0.11668065190315247
3.18459619140625,0.2820861339569092,0.37290245294570923,0.0688159242272377
3.1946064453125,0.4164607524871826,0.22782579064369202,0.035670481622219086
3.204616455078125,0.43907126784324646,0.12796498835086823,0.0866343304514885
3.214595458984375,0.4155164361000061,0.10945697128772736,0.23999141156673431
3.22460546875,0.3732137084007263,0.16242404282093048,0.34061551094055176
3.23458447265625,0.3253086805343628,0.24789641797542572,0.36519867181777954
3.244594482421875,0.31313857436180115,0.33510828018188477,0.3473653197288513
3.254603515625,0.34595945477485657,0.3769024908542633,0.2979695796966553
3.26458349609375,0.4001598656177521,0.3014410138130188,0.2165769785642624
3.274592529296875,0.4492972791194916,0.1507057100534439,0.1172831580042839
3.2846025390625,0.44660162925720215,-0.01845962181687355,0.0424794927239418
3.29458154296875,0.3797449469566345,-0.18604739010334015,0.025616789236664772
3.30459130859375,0.2537129819393158,-0.31253716349601746,0.028217898681759834
3.3146015625,0.09244183450937271,-0.33152902126312256,-0.012521898373961449
3.324580322265625,-0.10220301896333694,-0.2975284457206726,-0.14141303300857544
3.334590576171875,-0.2790476381778717,-0.19644795358181,-0.313764750957489
3.3446005859375,-0.4083811342716217,-0.07125701755285263,-0.4568675756454468
3.35457958984375,-0.4755851626396179,0.04183579236268997,-0.5137736797332764
3.364589599609375,-0.480812132358551,0.10460782796144485,-0.46752384305000305
3.374598388671875,-0.4778885841369629,0.09390294551849365,-0.3299714922904968
3.38457861328125,-0.4740765392780304,0.07697936147451401,-0.20635846257209778
3.39458740234375,-0.4645518660545349,0.07724850624799728,-0.13709667325019836
3.404567626953125,-0.4583991765975952,0.062042128294706345,-0.1058117225766182
3.414576416015625,-0.4604547917842865,0.045479148626327515,-0.10857101529836655
3.42458642578125,-0.44050928950309753,0.07222181558609009,-0.10457680374383926
3.4345654296875,-0.4001469016075134,0.08824417740106583,-0.07308892160654068
3.4445751953125,-0.37875691056251526,0.08103979378938675,-0.02194850705564022
3.45458544921875,-0.35946184396743774,0.08788333088159561,0.042911987751722336
3.464564453125,-0.3390125036239624,0.1055518090724945,0.08711220324039459
3.474574462890625,-0.3421843647956848,0.12446939200162888,0.093761146068573
3.48458447265625,-0.36724498867988586,0.09384384006261826,0.11098753660917282
3.4945634765625,-0.39547887444496155,0.026523463428020477,0.13082203269004822
3.504573486328125,-0.4092327654361725,-0.010622040368616581,0.13130725920200348
3.514583251953125,-0.42330697178840637,-0.037914857268333435,0.12399414926767349
3.5245625,-0.43302616477012634,-0.039842985570430756,0.1275755614042282
3.534572265625,-0.42682042717933655,-0.01689976640045643,0.1490740329027176
3.54458154296875,-0.4162793755531311,0.01100829802453518,0.17542174458503723
3.5545615234375,-0.40933603048324585,0.030693458393216133,0.1950596272945404
3.564546142578125,-0.4359220862388611,0.011347990483045578,0.17685586214065552
3.57455615234375,-0.5120866298675537,-0.0062494282610714436,0.16330444812774658
3.58453515625,-0.5817977786064148,-0.002551362384110689,0.14809300005435944
3.594544921875,-0.6295913457870483,0.00018689408898353577,0.071653351187706
3.604524169921875,-0.6581302881240845,0.03708845376968384,-0.0029820033814758062
3.614533935546875,-0.6482051014900208,0.07927440106868744,-0.006357282400131226
3.6245439453125,-0.6073306202888489,0.11115004122257233,0.022351594641804695
3.63452294921875,-0.5614411234855652,0.14651459455490112,0.055882032960653305
3.644532958984375,-0.5092971920967102,0.17731352150440216,0.08463138341903687
3.65454296875,-0.46909502148628235,0.18917381763458252,0.09236805140972137
3.66452197265625,-0.4453537166118622,0.1654602438211441,0.04996733367443085
3.6745322265625,-0.4276828467845917,0.10886167734861374,-0.011082437820732594
3.684541015625,-0.46113136410713196,0.0749702900648117,-0.04845164716243744
3.694521240234375,-0.4818587899208069,0.17954494059085846,-0.005917858332395554
3.704530029296875,-0.42850261926651,0.27468743920326233,0.05173372104763985
3.7145400390625,-0.3724949061870575,0.24085739254951477,0.10622821003198624
3.724519287109375,-0.2956177294254303,0.15261435508728027,0.1450142115354538
3.734529052734375,-0.22201701998710632,0.06789391487836838,0.16334787011146545
3.744539306640625,-0.17853079736232758,0.0002983598969876766,0.19140267372131348
3.75451806640625,-0.16461379826068878,-0.050674598664045334,0.22018273174762726
3.764528076171875,-0.19554108381271362,-0.0034405067563056946,0.22305016219615936
3.774507080078125,-0.29388168454170227,0.1258297860622406,0.15832994878292084
3.78451708984375,-0.4056510925292969,0.26856642961502075,0.0728970617055893
3.794527099609375,-0.48374250531196594,0.3602902591228485,0.04465041309595108
3.804506103515625,-0.47652775049209595,0.36014431715011597,0.07692046463489532
3.814516357421875,-0.41825801134109497,0.16245031356811523,0.21472202241420746
