seconds_elapsed,z,y,x
0.019622802734375,-0.12669134140014648,0.043988827615976334,0.07808052748441696
0.029631591796875,-0.12348490208387375,0.03386162593960762,0.1022907942533493
0.0396416015625,-0.11024203151464462,0.0037704778369516134,0.15693770349025726
0.04962060546875,-0.11466101557016373,-0.03750612214207649,0.21987272799015045
0.059630615234375,-0.1543557047843933,-0.04301273822784424,0.2531353533267975
0.069640869140625,-0.19204342365264893,0.01894756592810154,0.21946260333061218
0.07961962890625,-0.18895269930362701,0.0664028450846672,0.14678306877613068
0.089629638671875,-0.16141268610954285,0.1064639762043953,0.08274205029010773
0.099608642578125,-0.1511240303516388,0.13115449249744415,0.04623711109161377
0.10961865234375,-0.16045494377613068,0.15724574029445648,0.03975071758031845
0.119628662109375,-0.1451639086008072,0.15652811527252197,0.06509584933519363
0.129607666015625,-0.119708351790905,0.13379165530204773,0.10221818089485168
0.13961767578125,-0.10325269401073456,0.11709181219339371,0.14617516100406647
0.149627685546875,-0.08745535463094711,0.05256475508213043,0.1987030804157257
0.159606689453125,-0.08064756542444229,-0.07402448356151581,0.2427118420600891
0.16961669921875,-0.08893319219350815,-0.1774294376373291,0.2818661630153656
0.179625732421875,-0.0957878828048706,-0.20213961601257324,0.33724454045295715
0.189605712890625,-0.12674899399280548,-0.13142842054367065,0.4612402617931366
0.19961474609375,-0.152547225356102,-0.14433854818344116,0.6429624557495117
0.209625,-0.19217480719089508,-0.3798844814300537,0.8344093561172485
0.219603759765625,-0.21122542023658752,-0.6638612747192383,1.058800458908081
0.22961376953125,-0.48213255405426025,-1.1283913850784302,1.332072377204895
0.239623779296875,-0.882469654083252,-1.7718793153762817,1.5900899171829224
0.249602783203125,-1.2454299926757812,-2.269888162612915,1.7676665782928467
0.25961279296875,-1.4843621253967285,-2.4280238151550293,1.7715826034545898
0.269622802734375,-1.5768787860870361,-2.2775375843048096,1.6108895540237427
0.279601806640625,-1.6182876825332642,-1.9619550704956055,1.305804967880249
0.28961181640625,-1.6123595237731934,-1.6494051218032837,0.8915014266967773
0.2995908203125,-1.4731929302215576,-1.368921160697937,0.3794775605201721
0.309600830078125,-1.253654956817627,-1.0672121047973633,-0.09514646232128143
0.319609619140625,-0.9550120234489441,-0.6944998502731323,-0.4629979729652405
0.329589599609375,-0.4945501685142517,-0.24135257303714752,-0.6172890067100525
0.3395986328125,0.0927991047501564,-0.10547547787427902,-0.5317889451980591
0.34960888671875,0.6904667615890503,-0.20067577064037323,-0.2651450037956238
0.359587646484375,1.08648681640625,-0.6900811791419983,0.008117426186800003
0.36959765625,1.0965429544448853,-1.1916478872299194,0.15364399552345276
0.379607666015625,0.9459240436553955,-1.2632161378860474,0.24405379593372345
0.389586669921875,0.7052624225616455,-1.2396975755691528,0.3235246539115906
0.3995966796875,0.42163920402526855,-1.1803667545318604,0.4200703501701355
0.409606689453125,0.1761855185031891,-0.9476503729820251,0.5410436987876892
0.419585693359375,-0.008229506202042103,-0.7438250780105591,0.6208103895187378
0.429595703125,-0.1529720425605774,-0.7191306352615356,0.6646992564201355
0.439605712890625,-0.2016381472349167,-0.817972719669342,0.6671028733253479
0.449584716796875,-0.17793095111846924,-1.0365513563156128,0.5980710983276367
0.4595947265625,-0.17288850247859955,-1.341737985610962,0.4835532009601593
0.46960400390625,-0.25038859248161316,-1.650881290435791,0.33054685592651367
0.479583740234375,-0.3281949758529663,-1.7641420364379883,0.23732104897499084
0.489593017578125,-0.3556484282016754,-1.7923102378845215,0.19888123869895935
0.499602783203125,-0.3746222257614136,-1.7157713174819946,0.17895539104938507
0.509581787109375,-0.3891071379184723,-1.5418394804000854,0.1343754082918167
0.519591796875,-0.36786556243896484,-1.317484736442566,0.08534546941518784
0.52957080078125,-0.2651818096637726,-1.1102412939071655,0.0885591059923172
0.539580810546875,-0.1869361847639084,-0.9752557873725891,0.1915258765220642
0.5495908203125,-0.13793189823627472,-0.9663856029510498,0.27757635712623596
0.55956982421875,-0.05512533336877823,-1.0735586881637573,0.30351579189300537
0.569579833984375,0.14891009032726288,-1.1596392393112183,0.29213768243789673
0.579589599609375,0.4139150381088257,-1.0972051620483398,0.301614373922348
0.589568603515625,0.48310476541519165,-0.9781932830810547,0.25501278042793274
0.59957861328125,0.38707128167152405,-0.8940536379814148,0.15656602382659912
0.609587890625,0.24796797335147858,-0.6861637830734253,0.10149823129177094
0.619567626953125,0.12500570714473724,-0.37912654876708984,0.12237174808979034
0.62957763671875,0.06237375736236572,-0.09830047935247421,0.1278778314590454
0.639586669921875,0.11255835741758347,0.13580714166164398,0.07299824804067612
0.64956689453125,0.257815420627594,0.22959168255329132,-0.046647991985082626
0.65957568359375,0.38738730549812317,0.14301666617393494,-0.21572481095790863
0.669585693359375,0.43416014313697815,0.029867205768823624,-0.3332306742668152
0.679564697265625,0.5003249645233154,-0.103046715259552,-0.34788399934768677
0.68957470703125,0.6413950324058533,-0.2728983461856842,-0.31867632269859314
0.699584716796875,0.7595334649085999,-0.4593857526779175,-0.24447381496429443
0.709563720703125,0.7872479557991028,-0.6335322856903076,-0.09822526574134827
0.71957373046875,0.7706279158592224,-0.7345125079154968,0.10667000710964203
0.729552734375,0.7522329688072205,-0.7995247840881348,0.297968327999115
0.739562744140625,0.7803048491477966,-0.8376708030700684,0.4332070052623749
0.74957275390625,0.8039039373397827,-0.8190441131591797,0.5061073303222656
0.7595517578125,0.7850545644760132,-0.7762749791145325,0.4861947000026703
0.769561767578125,0.757339358329773,-0.7307937741279602,0.3979143798351288
0.77957080078125,0.7156839966773987,-0.6877498030662537,0.31053072214126587
0.789551025390625,0.5969600081443787,-0.6613118052482605,0.27450454235076904
0.799559814453125,0.37974900007247925,-0.6594662070274353,0.29505831003189087
0.80956982421875,0.16808629035949707,-0.5966733694076538,0.2611328363418579
0.819548828125,0.06315794587135315,-0.44801393151283264,0.1230425164103508
0.82955859375,0.04133893921971321,-0.22091342508792877,-0.09481364488601685
0.839568603515625,-0.005606577731668949,0.07551085948944092,-0.3500027358531952
0.849547607421875,-0.17153403162956238,0.3797074854373932,-0.615389347076416
0.8595576171875,-0.42877471446990967,0.619371235370636,-0.8896952271461487
0.869567626953125,-0.7042531371116638,0.7704928517341614,-1.1500917673110962
0.879546630859375,-0.9066000580787659,0.8283200263977051,-1.3735246658325195
0.889556640625,-1.0109364986419678,0.8350431323051453,-1.563198208808899
0.899566650390625,-1.0667362213134766,0.7866932153701782,-1.6908081769943237
0.9095458984375,-1.0802046060562134,0.696371853351593,-1.7506946325302124
0.9195556640625,-1.0545095205307007,0.6068607568740845,-1.7191394567489624
0.929564697265625,-0.9812073111534119,0.5330440402030945,-1.6125285625457764
0.939544677734375,-0.8568770289421082,0.4642314612865448,-1.463186502456665
0.949544677734375,-0.7126402258872986,0.375081866979599,-1.28011155128479
0.959524658203125,-0.5765817761421204,0.2731367349624634,-1.0642894506454468
0.96953369140625,-0.4355037808418274,0.16920341551303864,-0.8467469811439514
0.979543701171875,-0.2771014869213104,0.07627838104963303,-0.6378827095031738
0.989522705078125,-0.12670743465423584,-0.03050479292869568,-0.41941508650779724
0.99953271484375,-0.005753662437200546,-0.17566388845443726,-0.18651224672794342
1.009542724609375,0.06220860779285431,-0.3305272161960602,0.08355201035737991
1.019521484375,0.11115790158510208,-0.46571868658065796,0.3946794271469116
1.02953173828125,0.17456458508968353,-0.5675617456436157,0.6671338081359863
1.039541748046875,0.19027277827262878,-0.668501079082489,0.8399010896682739
1.049520751953125,0.10193785279989243,-0.7403126955032349,0.915281355381012
1.05953076171875,-0.0057538640685379505,-0.7560246586799622,0.8585159778594971
1.069539794921875,-0.09378039091825485,-0.771125853061676,0.6542725563049316
1.079519775390625,-0.18437473475933075,-0.7984573841094971,0.3539344072341919
1.08952880859375,-0.3404812514781952,-0.7971194386482239,-0.004478612449020147
1.099538818359375,-0.5627918243408203,-0.7625104188919067,-0.3771699070930481
1.109517822265625,-0.8043469190597534,-0.6875309944152832,-0.7252125144004822
1.11952783203125,-1.1489900350570679,-0.5504631996154785,-1.128496766090393
1.129537841796875,-1.6603912115097046,-0.3927215039730072,-1.6726447343826294
1.139516845703125,-2.260087251663208,-0.16522249579429626,-2.313080072402954
1.14952685546875,-2.7938339710235596,0.10303957015275955,-3.0081231594085693
1.159505615234375,-3.210270881652832,0.31596067547798157,-3.693607807159424
1.169515625,-3.532252550125122,0.4413071572780609,-4.278719425201416
1.179525634765625,-3.759751796722412,0.4926363229751587,-4.68116569519043
1.189504638671875,-3.891808271408081,0.4343511760234833,-4.8846869468688965
1.1995146484375,-3.929697036743164,0.2828578054904938,-4.958725929260254
1.209524658203125,-3.8600010871887207,0.04991379380226135,-4.906003475189209
1.219503662109375,-3.704308032989502,-0.19413553178310394,-4.688557147979736
1.229513427734375,-3.50933837890625,-0.42595812678337097,-4.424327373504639
1.239522705078125,-3.340174674987793,-0.7271551489830017,-4.209424018859863
1.249502685546875,-3.202089548110962,-1.071134090423584,-3.998491048812866
1.25951171875,-3.0924320220947266,-1.3508191108703613,-3.7773027420043945
1.269521728515625,-2.9739582538604736,-1.4918700456619263,-3.6618387699127197
1.27950048828125,-2.7923102378845215,-1.5901051759719849,-3.7238094806671143
1.2895107421875,-2.5964748859405518,-1.760826587677002,-3.8574488162994385
1.299520751953125,-2.505425214767456,-1.925913691520691,-3.9256017208099365
1.309499755859375,-2.4694883823394775,-2.0119526386260986,-3.8868253231048584
1.319509765625,-2.4508020877838135,-1.9516525268554688,-3.765167474746704
1.329519775390625,-2.4997706413269043,-1.7998613119125366,-3.6182310581207275
1.339498779296875,-2.695427656173706,-1.727642297744751,-3.5755295753479004
1.3495087890625,-3.083035945892334,-1.7649401426315308,-3.691924571990967
1.359517822265625,-3.473208427429199,-1.858765959739685,-3.966017484664917
1.36949755859375,-3.749851703643799,-1.973760962486267,-4.33977746963501
1.3795068359375,-4.028485298156738,-2.132930278778076,-4.558462619781494
1.38948681640625,-4.213943958282471,-2.272117853164673,-4.614645004272461
1.399495849609375,-4.296064853668213,-2.4252448081970215,-4.528892993927002
1.409505615234375,-4.275264739990234,-2.675241708755493,-4.242037773132324
1.41948583984375,-4.278321266174316,-2.971475124359131,-3.8204433917999268
1.42949462890625,-4.4012017250061035,-3.2373697757720947,-3.4183852672576904
1.439504638671875,-4.6037492752075195,-3.4484527111053467,-3.1473262310028076
1.449483642578125,-4.858288764953613,-3.537996292114258,-2.9606807231903076
1.45949365234375,-5.141010761260986,-3.5045924186706543,-2.885601282119751
1.469503662109375,-5.408462047576904,-3.4185643196105957,-2.9501659870147705
1.479482666015625,-5.651033401489258,-3.280320167541504,-3.0262508392333984
1.489492431640625,-5.8274641036987305,-3.1636264324188232,-3.0527994632720947
1.499502685546875,-5.934991836547852,-3.161548376083374,-2.9710628986358643
1.509481689453125,-6.022585391998291,-3.17958402633667,-2.6139907836914062
1.51949169921875,-6.053114891052246,-3.3084142208099365,-1.9275627136230469
1.529500732421875,-6.010488510131836,-3.519665241241455,-0.9679378271102905
1.539480712890625,-5.977943420410156,-3.6366167068481445,0.16125176846981049
1.54948974609375,-6.010794162750244,-3.4929654598236084,1.1297012567520142
1.559499755859375,-6.075377464294434,-3.1120526790618896,1.5454248189926147
1.569478759765625,-6.209046363830566,-2.4838225841522217,1.4355915784835815
1.57948876953125,-6.322658538818359,-1.7519357204437256,1.075376033782959
1.589498779296875,-6.242921352386475,-1.3467586040496826,0.9480329751968384
1.599477783203125,-5.970950603485107,-1.3198908567428589,1.3242183923721313
1.60948779296875,-5.457425117492676,-1.6819957494735718,2.157454013824463
1.619466796875,-4.866696834564209,-2.368669033050537,3.327113151550293
1.6294765625,-4.5223469734191895,-2.8943824768066406,4.429504871368408
1.63948681640625,-4.313064098358154,-3.200613498687744,5.0064287185668945
1.6494658203125,-4.199978351593018,-3.1232612133026123,4.8185133934021
1.659475830078125,-4.206340312957764,-2.7826263904571533,4.03071403503418
1.66948583984375,-4.253051280975342,-2.374871015548706,3.1997947692871094
1.67946484375,-4.357139587402344,-1.8779637813568115,2.5870399475097656
1.689474853515625,-4.373708724975586,-1.178725242614746,2.1086480617523193
1.699483642578125,-4.315239906311035,-0.6514202952384949,1.7962459325790405
1.7094638671875,-4.351924896240234,-0.7029886841773987,1.6345449686050415
1.71947265625,-4.351306915283203,-0.9134403467178345,1.4101060628890991
1.729482666015625,-4.190562725067139,-0.8442690372467041,1.1053009033203125
1.739461669921875,-3.9880571365356445,-0.6156865954399109,0.9936420917510986
1.749471435546875,-3.7735073566436768,-0.13456951081752777,1.0094910860061646
1.759481689453125,-3.4920132160186768,0.5670372843742371,1.031071662902832
1.769460693359375,-3.323545217514038,1.193477749824524,1.0430796146392822
1.779470703125,-3.399531602859497,1.767243504524231,1.149821162223816
1.789480712890625,-3.460620403289795,2.148712158203125,1.2977813482284546
1.799459716796875,-3.6426174640655518,1.9076459407806396,1.2857264280319214
1.8094697265625,-3.9181649684906006,1.2781394720077515,1.270415186882019
1.81944873046875,-4.105956554412842,0.8054139614105225,1.2271629571914673
1.829458740234375,-4.30278205871582,0.5511987209320068,1.0596197843551636
1.8394677734375,-4.592500686645508,0.7202076315879822,0.7393071055412292
1.84944775390625,-5.140459060668945,1.0997834205627441,0.3103581368923187
1.859456787109375,-6.107949733734131,1.3511642217636108,0.09800983965396881
1.869466796875,-7.133745193481445,1.2157739400863647,0.08947973698377609
1.87944580078125,-7.9578447341918945,0.7385535836219788,0.19773270189762115
1.88945556640625,-8.714366912841797,-0.17040595412254333,0.5116762518882751
1.8994658203125,-9.405776977539062,-1.1116728782653809,0.938761293888092
1.90944482421875,-10.049368858337402,-1.7778987884521484,0.8990018963813782
1.919454833984375,-10.470017433166504,-1.905012607574463,0.5335676670074463
1.92946484375,-10.627097129821777,-1.7802233695983887,0.06185370311141014
1.93944384765625,-10.722489356994629,-1.7285419702529907,-0.37162670493125916
1.94945166015625,-10.822834968566895,-1.8570541143417358,-0.7344866991043091
1.959461669921875,-10.966438293457031,-2.0457959175109863,-1.1560138463974
1.96944091796875,-11.039509773254395,-2.3890438079833984,-1.6554265022277832
1.97945068359375,-11.04858112335205,-3.0641415119171143,-2.235199451446533
1.989459716796875,-10.99067497253418,-3.8356833457946777,-2.9430627822875977
1.999439697265625,-10.534770011901855,-4.29882287979126,-3.42624568939209
2.00944873046875,-9.810462951660156,-4.731589317321777,-3.7405643463134766
2.019458984375,-8.920404434204102,-5.102466106414795,-4.3168182373046875
2.029437744140625,-7.668708801269531,-5.005161762237549,-5.041890621185303
2.03944775390625,-6.016765117645264,-4.476531505584717,-5.430716514587402
2.0494267578125,-4.158895969390869,-3.8362114429473877,-5.342905521392822
2.059436767578125,-2.3526594638824463,-3.5263638496398926,-4.831351280212402
2.06944677734375,-0.7399834394454956,-3.541431188583374,-4.334599494934082
2.07942578125,0.593629777431488,-3.614072561264038,-4.344183444976807
2.089435791015625,1.7308474779129028,-3.523841381072998,-4.747091770172119
2.09944580078125,2.646228790283203,-3.2276298999786377,-5.385947227478027
2.109425048828125,3.2837700843811035,-2.8680694103240967,-6.139033794403076
2.119434814453125,3.778571128845215,-2.5759785175323486,-6.763558864593506
2.129443603515625,4.238765239715576,-2.2034292221069336,-7.385794639587402
2.139423828125,4.805135250091553,-1.9757150411605835,-8.084179878234863
2.1494326171875,5.5257344245910645,-2.0135631561279297,-8.689866065979004
2.15944287109375,6.3765082359313965,-1.9168323278427124,-9.159636497497559
2.169421630859375,7.155073165893555,-1.6022694110870361,-9.625374794006348
2.179431640625,7.947359085083008,-1.1147868633270264,-9.929612159729004
2.189441650390625,8.683308601379395,-0.3413451611995697,-9.823009490966797
2.199420654296875,9.56698226928711,0.6474540829658508,-9.604646682739258
2.2094306640625,10.734689712524414,1.6266584396362305,-9.10218334197998
2.219440673828125,12.132301330566406,2.7955355644226074,-7.911076068878174
2.229419921875,13.993529319763184,4.162383079528809,-6.328558921813965
2.2394296875,15.675813674926758,4.890094757080078,-3.8050546646118164
2.249439697265625,16.927982330322266,5.426332473754883,-0.43598705530166626
2.259418701171875,17.681331634521484,5.403656959533691,2.4342851638793945
2.2694287109375,18.067066192626953,6.031407833099365,4.899163246154785
2.27940771484375,18.263906478881836,6.149888038635254,7.329495429992676
2.289417724609375,18.554805755615234,4.665869235992432,9.737846374511719
2.299427001953125,19.452430725097656,3.168858766555786,12.677695274353027
2.30940673828125,20.519201278686523,1.0417320728302002,15.546878814697266
2.319415771484375,19.50663948059082,-1.6853728294372559,15.715485572814941
2.32942578125,15.843295097351074,-5.062765598297119,14.476155281066895
2.33940478515625,11.145782470703125,-7.052304267883301,13.075870513916016
2.349414794921875,6.712325572967529,-6.6446213722229,12.048362731933594
2.3594248046875,3.0408451557159424,-4.602846622467041,11.599257469177246
2.369404052734375,0.14960482716560364,-1.6503453254699707,11.197750091552734
2.379413818359375,-2.129564046859741,1.921800971031189,10.654132843017578
2.389423828125,-3.5693767070770264,5.64450216293335,9.497586250305176
2.39940283203125,-4.178369522094727,8.025213241577148,8.538684844970703
2.409412841796875,-4.238455295562744,8.44002628326416,8.32419490814209
2.419421875,-4.220790386199951,8.102254867553711,7.817088603973389
2.42940185546875,-4.399150848388672,7.626119613647461,6.863128662109375
2.43941064453125,-4.555294036865234,7.092704772949219,6.02984094619751
2.449420654296875,-4.606133460998535,6.535271167755127,5.515718460083008
2.459399658203125,-4.595247268676758,5.958298683166504,5.149116039276123
2.46940966796875,-4.438680171966553,5.378412246704102,5.030210494995117
2.479419677734375,-4.0993571281433105,4.9890947341918945,5.059726715087891
2.48939892578125,-3.7778236865997314,4.7461018562316895,5.005255699157715
2.49940869140625,-4.118682384490967,4.764374732971191,5.02968168258667
2.509387939453125,-4.497538089752197,5.132748126983643,4.713970184326172
2.519397705078125,-5.001691818237305,5.56533145904541,4.055016040802002
2.52940771484375,-5.5195136070251465,5.845127582550049,3.1767923831939697
2.53938671875,-5.911451816558838,5.8653645515441895,2.264059543609619
2.549396728515625,-6.130162239074707,5.8653669357299805,1.462265133857727
2.55940673828125,-6.071817398071289,5.863298416137695,0.9865196943283081
2.5693857421875,-5.700514316558838,5.78774881362915,0.8193301558494568
2.57939599609375,-5.298326015472412,5.571447849273682,0.9574339389801025
2.58940478515625,-5.142904758453369,5.403622627258301,1.2566187381744385
2.599385009765625,-5.006152153015137,5.423605918884277,1.2923904657363892
2.609393798828125,-4.973986625671387,5.421114444732666,0.9356347322463989
2.61940380859375,-5.04893684387207,5.1393938064575195,0.3845762610435486
2.629383056640625,-5.0792107582092285,4.5625200271606445,-0.028322627767920494
2.639392822265625,-5.1022186279296875,3.9075329303741455,-0.1886015236377716
2.64940283203125,-5.108953475952148,3.3430979251861572,-0.16234087944030762
2.6593818359375,-5.145015239715576,2.847428321838379,-0.22833552956581116
2.669391845703125,-5.0548200607299805,2.677422285079956,-0.43618088960647583
2.67940185546875,-4.743573188781738,2.622324228286743,-0.7621977925300598
2.689380615234375,-4.481950283050537,2.5326061248779297,-0.9958930611610413
2.699390869140625,-4.37910270690918,2.3248043060302734,-1.233734130859375
2.70936962890625,-4.340682506561279,1.9228622913360596,-1.4061998128890991
2.7193798828125,-4.263577938079834,1.3258190155029297,-1.5120279788970947
2.7293896484375,-4.046608924865723,0.5060605406761169,-1.6015651226043701
2.73936865234375,-3.612889051437378,-0.37569501996040344,-1.7313568592071533
2.749378662109375,-3.1671152114868164,-1.0247060060501099,-1.9896856546401978
2.7593876953125,-3.09907603263855,-1.5911316871643066,-2.1402041912078857
2.76936767578125,-3.2941761016845703,-1.8607522249221802,-2.0698935985565186
2.779376708984375,-3.5642313957214355,-1.8044514656066895,-1.8015556335449219
2.78938671875,-3.7219324111938477,-1.4722708463668823,-1.47773277759552
2.79936572265625,-3.668741226196289,-1.178003191947937,-1.147480845451355
2.809375732421875,-3.4263880252838135,-0.9141316413879395,-0.8801697492599487
2.8193857421875,-3.044426679611206,-0.6972425580024719,-0.7449017763137817
2.82936474609375,-2.5986907482147217,-0.4458848834037781,-0.6806191802024841
2.839375,-2.3163599967956543,-0.3736342787742615,-0.661343514919281
2.849384765625,-2.1921610832214355,-0.35794052481651306,-0.7159880995750427
2.859364013671875,-2.2000362873077393,-0.22325704991817474,-0.7639139890670776
2.869373779296875,-2.210416555404663,-0.1550295352935791,-0.7586705088615417
2.8793828125,-2.102605104446411,-0.08643277734518051,-0.725763738155365
2.88936279296875,-1.8859264850616455,0.05400236323475838,-0.6695649027824402
2.899371826171875,-1.6459697484970093,0.25680041313171387,-0.601867139339447
2.9093818359375,-1.4522572755813599,0.42000797390937805,-0.5217645764350891
2.91936083984375,-1.397222638130188,0.5486891865730286,-0.3768637478351593
2.929370849609375,-1.3009318113327026,0.7034971714019775,-0.14618420600891113
2.939349609375,-1.0947202444076538,0.8187580108642578,0.11353276669979095
2.949348876953125,-0.9340626001358032,0.8207617402076721,0.32166120409965515
2.959359130859375,-0.8375735878944397,0.7382501363754272,0.44092145562171936
2.969337890625,-0.7561173439025879,0.5108148455619812,0.5355461835861206
2.97934814453125,-0.7318375706672668,0.2418178915977478,0.6114263534545898
2.98935791015625,-0.7392547130584717,0.02049322985112667,0.6613624691963196
2.9993369140625,-0.7561653256416321,-0.09041503816843033,0.6423394680023193
3.009346923828125,-0.799966037273407,-0.09225688129663467,0.5189797282218933
3.01935693359375,-0.8747274875640869,-0.05005163326859474,0.28473612666130066
3.0293359375,-0.9510033130645752,0.006574627943336964,0.05083548277616501
3.039345947265625,-1.0249388217926025,0.11043337732553482,-0.07335065305233002
3.049354736328125,-1.0895086526870728,0.21153628826141357,-0.11568240076303482
3.0593349609375,-1.1328269243240356,0.3247433006763458,-0.10942565649747849
3.06934375,-1.138325810432434,0.45898500084877014,-0.03519030660390854
3.07935400390625,-1.093430995941162,0.5336930155754089,0.06962381303310394
3.089332763671875,-1.0192584991455078,0.5463957786560059,0.1972997486591339
3.099343017578125,-0.9669902920722961,0.5162484645843506,0.3416737914085388
3.109352783203125,-0.937185525894165,0.45851248502731323,0.4681454598903656
3.119331787109375,-0.9431894421577454,0.3834306001663208,0.561324954032898
3.129341796875,-0.9997600317001343,0.27824291586875916,0.5897371768951416
3.139351806640625,-1.0921558141708374,0.23662374913692474,0.5707314610481262
3.149330810546875,-1.1625341176986694,0.27494585514068604,0.5123254060745239
3.1593408203125,-1.1937181949615479,0.3291804790496826,0.42397797107696533
3.169320068359375,-1.1524685621261597,0.3622566759586334,0.34963637590408325
3.179329833984375,-1.059491515159607,0.3365541398525238,0.3426590859889984
3.1893388671875,-0.9672342538833618,0.23018161952495575,0.40463748574256897
3.19931884765625,-0.908993124961853,0.07951278239488602,0.4918535351753235
3.209327880859375,-0.9310411810874939,-0.017362898215651512,0.6031906604766846
3.219338134765625,-1.0234065055847168,-0.11128171533346176,0.6344667077064514
3.22931689453125,-1.1424895524978638,-0.14340929687023163,0.576524019241333
3.2393271484375,-1.2614760398864746,-0.1242799311876297,0.4493945837020874
3.2493369140625,-1.3450425863265991,-0.06724727898836136,0.2721947431564331
3.25931591796875,-1.3920965194702148,0.006517171859741211,0.10089579224586487
3.269325927734375,-1.3990639448165894,0.05259385332465172,-0.016908342018723488
3.2793359375,-1.344005823135376,0.040671948343515396,-0.08511162549257278
3.28931494140625,-1.2787247896194458,0.029656851664185524,-0.08389722555875778
3.299324951171875,-1.2320183515548706,-0.02047107368707657,-0.06816530972719193
3.309335205078125,-1.1812294721603394,-0.0738631933927536,-0.06387548893690109
3.31931396484375,-1.1287230253219604,-0.09074244648218155,-0.06927505135536194
3.32932373046875,-1.0911842584609985,-0.10512511432170868,-0.05958620458841324
3.3393330078125,-1.058131217956543,-0.07563255727291107,0.026539277285337448
3.349312744140625,-0.9876134395599365,0.011066654697060585,0.16831213235855103
3.359322021484375,-0.886169970035553,0.10420744121074677,0.3030237853527069
3.369331787109375,-0.7869925498962402,0.19063474237918854,0.3853096067905426
3.379310791015625,-0.6824631094932556,0.21363522112369537,0.3893110752105713
3.38932080078125,-0.6094735860824585,0.15376922488212585,0.3345828652381897
3.3992998046875,-0.5871020555496216,0.1126345694065094,0.26011794805526733
3.409309814453125,-0.5214881300926208,0.06297753751277924,0.19061343371868134
3.41931982421875,-0.4456735849380493,0.059079933911561966,0.10003727674484253
3.429299072265625,-0.46707314252853394,0.08892251551151276,0.1703026443719864
3.439308837890625,-0.5919321775436401,-0.16189680993556976,0.32110610604286194
3.449319091796875,-0.6599525213241577,-0.36957433819770813,0.338401734828949
3.4592978515625,-0.6525863409042358,-0.33158132433891296,0.2642020583152771
3.469307861328125,-0.6837331056594849,-0.25827115774154663,0.19633620977401733
3.479317138671875,-0.7154633402824402,-0.18704839050769806,0.16484671831130981
3.489296875,-0.7385992407798767,-0.2472725808620453,0.10935843735933304
3.49930615234375,-0.7558782696723938,-0.38308170437812805,0.10766502469778061
3.50931591796875,-0.7166720032691956,-0.48823264241218567,0.16966287791728973
3.519294921875,-0.6330241560935974,-0.6039010882377625,0.24069267511367798
