seconds_elapsed,z,y,x
0.025226806640625,-0.12649765610694885,0.09296373277902603,0.2883870303630829
0.035236572265625,-0.12323581427335739,0.07925723493099213,0.3271631896495819
0.045215576171875,-0.10608529299497604,0.07237302511930466,0.3277345299720764
0.055225830078125,-0.09026505053043365,0.06488953530788422,0.32329556345939636
0.065235595703125,-0.07841028273105621,0.054951902478933334,0.3163262605667114
0.07521484375,-0.06746549159288406,0.0455341674387455,0.3134292662143707
0.085224609375,-0.05886240303516388,0.032821595668792725,0.3170241713523865
0.095203857421875,-0.05890714377164841,0.020305804908275604,0.31322863698005676
0.105213623046875,-0.06376633048057556,0.00649329973384738,0.30234771966934204
0.1152236328125,-0.07819906622171402,-0.001857574563473463,0.3044193685054779
0.12520263671875,-0.08892548829317093,-0.009160827845335007,0.314208984375
0.135212646484375,-0.09189704060554504,-0.019320521503686905,0.31385746598243713
0.145221923828125,-0.08954121172428131,-0.00955983530730009,0.30209726095199585
0.15520166015625,-0.08794598281383514,-0.014517041854560375,0.3060550093650818
0.16521044921875,-0.07908351719379425,-0.025168467313051224,0.3117750883102417
0.175220703125,-0.07504110038280487,-0.017228521406650543,0.2798086106777191
0.185200927734375,-0.06797334551811218,-0.0058239721693098545,0.2294074296951294
0.195209716796875,-0.054515860974788666,-0.010083433240652084,0.18955720961093903
0.205219482421875,-0.04177448898553848,-0.018863853067159653,0.1633356809616089
0.21519873046875,-0.04887181520462036,-0.02481788396835327,0.1267843246459961
0.22520849609375,-0.09625104814767838,-0.06492440402507782,0.11097325384616852
0.235187744140625,-0.07606349140405655,-0.07749079167842865,0.168339341878891
0.245197509765625,-0.1061050072312355,-0.11659616231918335,0.23448403179645538
0.25520751953125,-0.09143338352441788,-0.14009802043437958,0.29587602615356445
0.2651865234375,-0.06046268716454506,-0.19705452024936676,0.3735481798648834
0.275196533203125,-0.04176570102572441,-0.1840692162513733,0.4446106255054474
0.285206787109375,-0.040924131870269775,-0.1884768307209015,0.4595968425273895
0.295185546875,0.013961486518383026,-0.27919235825538635,0.5139703154563904
0.30519580078125,0.040494292974472046,-0.3924364745616913,0.6498116254806519
0.315204833984375,0.0010145255364477634,-0.8666000962257385,0.874178409576416
0.325184814453125,0.07839878648519516,-1.5504794120788574,1.387370228767395
0.33519384765625,0.2277480661869049,-2.4083409309387207,1.8709419965744019
0.345173583984375,0.39175882935523987,-3.16497802734375,2.44297456741333
0.355182861328125,0.533000648021698,-3.8766040802001953,3.0480804443359375
0.365192626953125,0.6649256348609924,-4.142300605773926,3.4777331352233887
0.375171875,0.6872500777244568,-3.8540239334106445,3.660127878189087
0.385181640625,0.8143212795257568,-3.1899197101593018,3.6735169887542725
0.395191650390625,0.8706308603286743,-2.532885789871216,3.608884811401367
0.405170654296875,0.8145431280136108,-2.3135504722595215,3.4556758403778076
0.4151806640625,0.6007253527641296,-2.389133930206299,3.490023374557495
0.42519091796875,0.533674955368042,-2.794132947921753,3.611633062362671
0.435169677734375,0.6752313375473022,-3.252378225326538,3.787498712539673
0.445179931640625,0.926088273525238,-3.770836114883423,4.0315117835998535
0.455189697265625,1.1326686143875122,-3.8605661392211914,4.272765159606934
0.4651689453125,1.23192298412323,-3.530486583709717,4.421820640563965
0.475178466796875,1.1879539489746094,-2.9079084396362305,4.39920711517334
0.485157470703125,0.9652500748634338,-2.314124822616577,4.164397239685059
0.495167724609375,0.6421425938606262,-1.8892850875854492,3.787353992462158
0.505176513671875,0.26766589283943176,-1.6648945808410645,3.2075510025024414
0.51515673828125,0.5553067326545715,-1.720394492149353,2.1582751274108887
0.52516552734375,1.0500038862228394,-2.3036937713623047,1.2062572240829468
0.535175537109375,0.9737330079078674,-2.3368382453918457,0.9648298621177673
0.54515478515625,1.0569294691085815,-1.9288709163665771,0.7227048873901367
0.55516455078125,1.5887606143951416,-2.079094886779785,0.37285229563713074
0.5651748046875,1.573276400566101,-1.5987433195114136,0.39300209283828735
0.575153564453125,1.740591049194336,-1.4956413507461548,0.09074103832244873
0.585163818359375,1.8928489685058594,-1.276162028312683,-0.11051522195339203
0.595142578125,1.7753859758377075,-1.008980393409729,-0.459726482629776
0.605152587890625,1.9265167713165283,-1.12192702293396,-0.8575135469436646
0.61516259765625,1.8385053873062134,-1.5559046268463135,-1.1386653184890747
0.6251416015625,1.988735556602478,-1.8021336793899536,-1.429384469985962
0.63515185546875,2.259442090988159,-1.9211645126342773,-1.8069262504577637
0.64516064453125,2.251749277114868,-1.840315341949463,-2.3687031269073486
0.655140869140625,2.31719970703125,-1.7797355651855469,-3.0303964614868164
0.665149658203125,2.4217264652252197,-1.9053821563720703,-3.5746142864227295
0.67515966796875,2.547015428543091,-2.14182448387146,-4.124265193939209
0.685138916015625,2.956406354904175,-1.9761375188827515,-4.732082366943359
0.695148681640625,3.112015962600708,-1.7952187061309814,-5.170220851898193
0.705158935546875,3.0604443550109863,-1.7158170938491821,-5.2942214012146
0.715137451171875,2.9964101314544678,-1.906147837638855,-5.346982955932617
0.725147705078125,2.901423931121826,-2.158317804336548,-5.614380836486816
0.73512646484375,2.7453413009643555,-2.202014684677124,-6.115954875946045
0.745136474609375,2.5181167125701904,-2.3305182456970215,-6.697261333465576
0.755146728515625,2.204162120819092,-2.5494167804718018,-7.2950568199157715
0.76512548828125,1.705756664276123,-2.7690863609313965,-7.827147960662842
0.7751357421875,1.112306833267212,-2.9667956829071045,-8.307403564453125
0.7851455078125,0.6561644077301025,-3.1301040649414062,-8.88603687286377
0.795124755859375,0.08981868624687195,-3.1983721256256104,-9.21924114227295
0.805134521484375,-0.522381067276001,-3.2970612049102783,-9.148781776428223
0.8151435546875,-1.2613505125045776,-3.425276041030884,-8.905858993530273
0.82512353515625,-2.106743335723877,-3.4998626708984375,-8.686466217041016
0.835132568359375,-2.9549739360809326,-3.657250165939331,-8.428253173828125
0.845142822265625,-3.6259758472442627,-3.818418264389038,-8.125020980834961
0.85512158203125,-4.195496082305908,-4.007482528686523,-7.64974308013916
0.865131591796875,-4.772741794586182,-4.237076282501221,-7.074960708618164
0.875110595703125,-5.321362495422363,-4.447493076324463,-6.535951137542725
0.88512060546875,-5.722687244415283,-4.631269931793213,-5.962901592254639
0.895130859375,-5.886993408203125,-5.090157508850098,-5.703706741333008
0.905109619140625,-5.821404457092285,-4.414323806762695,-4.914558410644531
0.915119873046875,-5.881291389465332,-4.181634902954102,-4.056939125061035
0.925129638671875,-5.939342021942139,-4.099262714385986,-3.427952289581299
0.93510888671875,-6.009703636169434,-4.114593505859375,-2.748502492904663
0.94511865234375,-6.014633655548096,-4.1745100021362305,-1.9641958475112915
0.95512744140625,-5.96417236328125,-4.172067165374756,-1.2615855932235718
0.965107421875,-5.959204196929932,-4.133316993713379,-0.8223013281822205
0.975116455078125,-6.087716579437256,-4.245970249176025,-0.5171014666557312
0.9850966796875,-6.253697872161865,-4.501866340637207,-0.3141380250453949
0.9951064453125,-6.341965198516846,-4.544800281524658,-0.22177934646606445
1.005115478515625,-6.310476779937744,-4.574546813964844,-0.10413601249456406
1.015095458984375,-6.2669358253479,-4.6446709632873535,0.001639688154682517
1.0251044921875,-6.246519565582275,-4.3407182693481445,-0.0248583871871233
1.03511474609375,-6.208644866943359,-3.6453776359558105,0.08237618952989578
1.045093505859375,-6.1772074699401855,-3.5687339305877686,0.247669517993927
1.055103759765625,-6.13038969039917,-3.6896159648895264,0.5015720725059509
1.065113525390625,-6.017337322235107,-3.70316743850708,0.8079521656036377
1.0750927734375,-5.974123477935791,-3.621547222137451,0.9540672898292542
1.0851025390625,-6.019270896911621,-3.350658655166626,0.8993741273880005
1.095112548828125,-6.049057483673096,-2.9993035793304443,0.7897871732711792
1.105091552734375,-6.124398708343506,-2.858290910720825,0.6604663133621216
1.1151015625,-6.2625885009765625,-3.2216720581054688,0.6183585524559021
1.125080810546875,-6.13252067565918,-3.6910390853881836,0.7198801040649414
1.135090576171875,-6.4400954246521,-2.869278907775879,1.196679711341858
1.145099609375,-6.434920310974121,-3.0775675773620605,1.4535186290740967
1.15507958984375,-6.533511638641357,-3.1574788093566895,1.5789111852645874
1.165088623046875,-6.598323822021484,-2.8810765743255615,1.4137717485427856
1.175098876953125,-6.579732894897461,-2.3210322856903076,0.9046594500541687
1.18507763671875,-6.368410110473633,-1.6867364645004272,0.3444270193576813
1.195087890625,-6.163930416107178,-1.176350474357605,0.04146448150277138
1.20509765625,-6.037116050720215,-1.1898794174194336,0.20750659704208374
1.21507666015625,-5.814798831939697,-1.634472370147705,1.0163251161575317
1.22508642578125,-5.354518890380859,-1.997223973274231,2.297886848449707
1.2350654296875,-4.842919826507568,-2.011223554611206,3.30330491065979
1.24507568359375,-4.5242390632629395,-1.6990488767623901,3.4231491088867188
1.25508544921875,-4.22787618637085,-0.9787359237670898,2.7352890968322754
1.265064697265625,-3.945834159851074,-0.1772201955318451,1.7248502969741821
1.275074462890625,-3.6945559978485107,0.2378033548593521,0.8262888789176941
1.285084716796875,-3.253998041152954,0.308684766292572,0.11999349296092987
1.2950634765625,-2.7994134426116943,0.3074796795845032,-0.35248562693595886
1.305073486328125,-2.40348482131958,0.5547814965248108,-0.6795717477798462
1.315082763671875,-1.9871162176132202,0.9429833292961121,-0.9181398749351501
1.3250625,-1.652014136314392,1.1404101848602295,-1.012787103652954
1.33507177734375,-1.387973427772522,1.0854483842849731,-1.0296473503112793
1.34508154296875,-1.1665871143341064,1.1958421468734741,-1.0357766151428223
1.355060791015625,-1.1312036514282227,1.039719581604004,-0.9914951324462891
1.365070556640625,-1.1173502206802368,0.924211859703064,-0.9330553412437439
1.375049560546875,-1.0794885158538818,1.0093326568603516,-0.9373289346694946
1.385059814453125,-1.178564190864563,0.8840839862823486,-0.9392051100730896
1.395069580078125,-1.3809913396835327,0.4933178126811981,-1.0292731523513794
1.405048828125,-1.6440885066986084,0.2152014672756195,-1.167545199394226
1.41505859375,-1.6732642650604248,-0.08692429959774017,-1.3608920574188232
1.42506884765625,-2.1203582286834717,-0.614419162273407,-1.4418963193893433
1.435047607421875,-2.6191067695617676,-1.1708743572235107,-1.536878228187561
1.4450576171875,-2.9832427501678467,-1.3155221939086914,-1.6828826665878296
1.455066650390625,-3.4448888301849365,-1.363369107246399,-1.860159993171692
1.465046630859375,-3.905637264251709,-1.5929088592529297,-2.021580219268799
1.4750556640625,-4.228325366973877,-1.7265231609344482,-2.250772476196289
1.48503564453125,-4.6997809410095215,-1.8412058353424072,-2.398261070251465
1.49504443359375,-5.112334728240967,-2.297734022140503,-2.6235191822052
1.5050546875,-5.520236968994141,-3.0984253883361816,-3.1333703994750977
1.515033447265625,-6.104082107543945,-3.911330223083496,-3.7884042263031006
1.525043701171875,-6.047389984130859,-4.286545276641846,-4.660695552825928
1.535053466796875,-5.771182537078857,-4.500504970550537,-5.400443077087402
1.54503271484375,-5.431751251220703,-4.797269344329834,-6.050380229949951
1.55504248046875,-5.089177131652832,-4.88318395614624,-6.441766262054443
1.565052490234375,-4.69273567199707,-4.88126277923584,-6.524199485778809
1.575031494140625,-4.280752658843994,-4.967972755432129,-6.176641464233398
1.58504150390625,-4.364555358886719,-4.963454723358154,-5.771237850189209
1.5950517578125,-4.172728061676025,-5.055888652801514,-5.207765102386475
1.605030517578125,-3.725757122039795,-5.605056285858154,-4.642664432525635
1.615040771484375,-3.0199661254882812,-6.171534061431885,-4.322188377380371
1.62501953125,-2.0365991592407227,-6.271130561828613,-4.35377311706543
1.63502978515625,-0.8705616593360901,-5.871577262878418,-4.805509567260742
1.645038818359375,0.37785500288009644,-5.287167549133301,-5.597349643707275
1.655018798828125,1.6996843814849854,-4.400971412658691,-6.457527160644531
1.66502783203125,2.9426281452178955,-2.844104528427124,-7.291708469390869
1.67503759765625,3.957016706466675,-1.2034581899642944,-8.035623550415039
1.685016845703125,4.726940155029297,-0.32718798518180847,-8.349435806274414
1.695026611328125,5.443634033203125,-0.1014009565114975,-8.209694862365723
1.70503662109375,6.040265083312988,-0.3941350281238556,-7.869038105010986
1.715015625,6.5330352783203125,-0.6382265090942383,-7.80849552154541
1.725025634765625,7.430556297302246,-0.09667477756738663,-7.889566421508789
1.73497802734375,8.3440523147583,1.209115982055664,-8.005219459533691
1.744988037109375,9.247714042663574,2.4919586181640625,-8.115256309509277
1.754998046875,10.41932201385498,3.7834737300872803,-7.830117702484131
1.76497705078125,11.2171049118042,5.050047874450684,-7.207509994506836
1.774987060546875,11.812175750732422,5.650448799133301,-6.342808246612549
1.7849970703125,12.531920433044434,6.158470630645752,-5.040849685668945
1.794975830078125,12.964127540588379,6.808040142059326,-3.2594056129455566
1.804986083984375,13.26976490020752,7.345892429351807,-1.6464449167251587
1.8149951171875,13.580723762512207,8.531414985656738,-0.3628089427947998
1.82497509765625,13.620499610900879,9.635210990905762,1.122365117073059
1.83498388671875,13.726369857788086,9.965373039245605,2.7020273208618164
1.844993896484375,14.04673957824707,9.700956344604492,4.237968921661377
1.854972900390625,14.430622100830078,8.54321575164795,6.045163631439209
1.86498291015625,15.440311431884766,7.182821750640869,8.378153800964355
1.8749619140625,16.418907165527344,5.337179660797119,10.203786849975586
1.884971923828125,16.3024959564209,2.1211328506469727,11.202197074890137
1.89498193359375,16.236623764038086,-0.7468182444572449,12.249039649963379
1.9049609375,14.393901824951172,-3.7299747467041016,12.684517860412598
1.914970703125,11.737873077392578,-5.372252464294434,12.817045211791992
1.92498095703125,7.948933124542236,-5.478775501251221,12.558985710144043
1.9349599609375,3.5010924339294434,-3.876201868057251,11.929180145263672
1.944969970703125,-0.597099244594574,-0.795348584651947,10.314523696899414
1.95497900390625,-4.905416011810303,2.353456735610962,7.63696813583374
1.964958984375,-7.81418514251709,5.732527732849121,5.294617652893066
1.974968017578125,-9.100576400756836,8.608055114746094,3.743077516555786
1.984947998046875,-8.922918319702148,10.164485931396484,3.1380221843719482
1.99495703125,-7.864743232727051,10.247468948364258,3.289216995239258
2.004967041015625,-6.330071926116943,9.500288963317871,3.6793203353881836
2.014946044921875,-4.791560649871826,8.300482749938965,3.8714282512664795
2.0249560546875,-3.5177643299102783,6.80961275100708,4.011915683746338
2.034966064453125,-2.635418653488159,5.544543266296387,4.219746112823486
2.044945068359375,-2.2718658447265625,4.902589321136475,4.357802867889404
2.054954833984375,-2.478184461593628,4.8305768966674805,4.209053039550781
2.064965087890625,-3.088620662689209,5.266721248626709,3.7615644931793213
2.074944091796875,-3.976738452911377,6.1305108070373535,3.1774680614471436
2.0849541015625,-4.93464469909668,6.92282247543335,2.3473856449127197
2.094964111328125,-5.583293437957764,7.332125186920166,1.281585454940796
2.104943115234375,-6.017844200134277,7.542843818664551,0.10143817216157913
2.114953125,-6.371055603027344,7.491242408752441,-0.8980507254600525
2.12493212890625,-6.38034725189209,7.184293746948242,-1.7816507816314697
2.13494189453125,-5.975471019744873,6.914134979248047,-2.2511813640594482
2.144950927734375,-5.5723371505737305,6.544679164886475,-2.2584362030029297
2.154930908203125,-5.271111011505127,6.118775367736816,-1.9417389631271362
2.16493994140625,-5.162266731262207,5.755136966705322,-1.5269629955291748
2.17494970703125,-5.171200275421143,5.527543067932129,-1.1930067539215088
2.184928955078125,-5.279042720794678,5.399041175842285,-1.1602203845977783
2.19493896484375,-5.496445178985596,5.473214626312256,-1.3471122980117798
2.204948974609375,-5.633166790008545,5.544859409332275,-1.7516213655471802
2.214927978515625,-5.601213455200195,5.381106376647949,-2.1755242347717285
2.22493798828125,-5.2809247970581055,4.879751682281494,-2.5270204544067383
2.234947998046875,-4.770608901977539,4.069234848022461,-2.6891586780548096
2.244927001953125,-4.312591075897217,3.2015926837921143,-2.5413999557495117
2.25493701171875,-4.033735752105713,2.428346633911133,-2.106801986694336
2.264916015625,-3.9535536766052246,1.861253023147583,-1.564068078994751
2.274926025390625,-3.9081058502197266,1.3991152048110962,-1.2046856880187988
2.28493505859375,-3.9386661052703857,1.0171741247177124,-1.2015211582183838
2.2949150390625,-3.8127667903900146,0.464511513710022,-1.516657829284668
2.304924072265625,-3.5877742767333984,-0.08416193723678589,-1.9571752548217773
2.314933837890625,-3.3828892707824707,-0.5195003151893616,-2.1308979988098145
2.3249130859375,-3.1907143592834473,-0.7976645827293396,-2.1020889282226562
2.334923095703125,-3.1042017936706543,-0.8315309286117554,-2.0177271366119385
2.34493310546875,-3.1732177734375,-0.7212468981742859,-1.8230199813842773
2.354912109375,-3.2140731811523438,-0.22605475783348083,-1.3346498012542725
2.364922119140625,-3.216088056564331,0.024304529651999474,-0.5473542809486389
2.37490087890625,-3.0263614654541016,-0.4859137237071991,0.3945123553276062
2.384910888671875,-2.6175830364227295,-1.018778920173645,1.2992608547210693
2.3949208984375,-2.0205678939819336,-1.014882206916809,2.0477700233459473
2.404899658203125,-1.4284005165100098,-0.5976609587669373,2.499952554702759
2.414909912109375,-1.0470092296600342,-0.44441521167755127,2.593691825866699
2.424919921875,-0.8321117162704468,-0.6657355427742004,2.1054253578186035
2.43489892578125,-0.7113969922065735,-0.5945340394973755,1.3309000730514526
2.444908935546875,-0.6144654750823975,-0.2316008061170578,0.5506721138954163
2.45491796875,-0.6151533722877502,-0.012949679046869278,-0.20504187047481537
2.46489794921875,-0.6474215388298035,0.08789268881082535,-0.8597245812416077
2.474906982421875,-0.5559999942779541,0.06931740790605545,-1.3557649850845337
2.4849169921875,-0.4461587369441986,0.0585942305624485,-1.6687514781951904
2.49489599609375,-0.4183683693408966,0.15997785329818726,-1.7245923280715942
2.504906005859375,-0.3869073987007141,0.3737732172012329,-1.5462455749511719
2.514885009765625,-0.37875545024871826,0.617794930934906,-1.1829960346221924
2.52489501953125,-0.4192538857460022,0.8183016180992126,-0.7183082699775696
2.534905029296875,-0.39174342155456543,1.2718185186386108,-0.20724232494831085
2.5448837890625,-0.3776302635669708,1.6133922338485718,0.17271417379379272
2.55489404296875,-0.4099040627479553,1.6803593635559082,0.31944796442985535
2.564904052734375,-0.5355975031852722,1.5552719831466675,0.23607094585895538
2.574883056640625,-0.7057013511657715,1.2537355422973633,0.04471084848046303
2.58489306640625,-0.8797847032546997,0.8153526186943054,-0.09681878983974457
2.594903076171875,-0.9867287278175354,0.4210665822029114,-0.13689537346363068
2.604882080078125,-0.9984386563301086,0.12369183450937271,-0.06008312106132507
2.61489208984375,-1.005387306213379,-0.042242273688316345,0.12633416056632996
2.62487109375,-1.0195990800857544,-0.08465363085269928,0.34254390001296997
2.634880859375,-1.0411571264266968,-0.009164468385279179,0.491268128156662
2.644889892578125,-1.0836411714553833,0.16930696368217468,0.5322715640068054
2.6548701171875,-1.0887213945388794,0.3944716453552246,0.4969044625759125
2.664878662109375,-1.0660455226898193,0.6278879642486572,0.42322060465812683
2.674888916015625,-1.0425995588302612,0.7995699644088745,0.33826789259910583
2.684867919921875,-1.0316376686096191,0.8913923501968384,0.2722349762916565
2.6948779296875,-1.028489589691162,0.9375765919685364,0.2099609673023224
2.704887939453125,-1.0129649639129639,0.9571503400802612,0.10151491314172745
2.714866943359375,-1.015303134918213,0.8416088223457336,-0.07473441958427429
2.724876953125,-1.067154884338379,0.5987370610237122,-0.23855288326740265
2.734884765625,-1.1133074760437012,0.44508281350135803,-0.26959627866744995
2.744864013671875,-1.0951015949249268,0.420460045337677,-0.16303986310958862
2.754873779296875,-1.0139585733413696,0.500323474407196,0.04124056547880173
2.76485302734375,-0.8836937546730042,0.6059127449989319,0.2738837003707886
2.77486279296875,-0.7640269994735718,0.6824014186859131,0.4619326889514923
2.784871826171875,-0.6914182901382446,0.714156448841095,0.5649366974830627
2.794851806640625,-0.6499491333961487,0.7025259137153625,0.5819289684295654
2.80486083984375,-0.6336535215377808,0.6462477445602417,0.524694561958313
2.81487109375,-0.6486404538154602,0.5629949569702148,0.4169582426548004
2.824849609375,-0.682145893573761,0.49520567059516907,0.28729748725891113
2.834859619140625,-0.7257261276245117,0.46002504229545593,0.17380046844482422
2.84486962890625,-0.7637361884117126,0.45066729187965393,0.08400475233793259
2.8548486328125,-0.745194137096405,0.45868316292762756,0.022654041647911072
2.86485888671875,-0.6679465174674988,0.44801244139671326,0.0035561230033636093
2.874837646484375,-0.5728415846824646,0.39531248807907104,0.04611503332853317
2.884847900390625,-0.4737642705440521,0.3264513909816742,0.1328689008951187
2.894857666015625,-0.37891098856925964,0.2587554156780243,0.25065064430236816
2.9048369140625,-0.30083614587783813,0.19349783658981323,0.3679168224334717
2.9148466796875,-0.26357826590538025,0.12150408327579498,0.43847912549972534
2.924856689453125,-0.2578849494457245,0.052352175116539,0.4798009991645813
2.934835693359375,-0.28191491961479187,0.019574787467718124,0.5072669982910156
2.944845703125,-0.336521714925766,5.46150840818882e-05,0.5060621500015259
2.954854736328125,-0.4006149470806122,-0.01522979885339737,0.4891146123409271
2.964834716796875,-0.4899842143058777,0.011555856093764305,0.4477721154689789
2.97484375,-0.6016452312469482,0.08472753316164017,0.36423808336257935
2.984853759765625,-0.648815929889679,0.1993606835603714,0.2628672420978546
2.994832763671875,-0.599653959274292,0.29613223671913147,0.16793672740459442
3.004843017578125,-0.50856614112854,0.3295247256755829,0.09994740784168243
3.01482177734375,-0.4495720863342285,0.27898672223091125,0.06916845589876175
3.02483203125,-0.4208831787109375,0.18582162261009216,0.08140614628791809
3.034841796875,-0.4012322425842285,0.08035910874605179,0.13364431262016296
3.044821044921875,-0.39689183235168457,-0.028402671217918396,0.2143055945634842
3.054830810546875,-0.41391611099243164,-0.10814996063709259,0.3184666037559509
3.0648408203125,-0.4730672836303711,-0.12639747560024261,0.41617825627326965
3.07481982421875,-0.5506818890571594,-0.09504488855600357,0.46148499846458435
3.084829833984375,-0.616832435131073,-0.005828680470585823,0.44154563546180725
3.094838623046875,-0.6437380909919739,0.13150547444820404,0.36351528763771057
3.10481884765625,-0.6094000935554504,0.22633765637874603,0.24360468983650208
3.11482763671875,-0.5580407381057739,0.25041767954826355,0.13752299547195435
3.124807861328125,-0.5225706100463867,0.22685523331165314,0.09340354055166245
3.134816650390625,-0.4968903362751007,0.1536736935377121,0.10410226136445999
3.144826904296875,-0.48600947856903076,0.028010062873363495,0.1477925181388855
3.154806640625,-0.5000283122062683,-0.10637490451335907,0.19669294357299805
3.16481591796875,-0.5365940928459167,-0.20056484639644623,0.2568455934524536
3.17482568359375,-0.5687533617019653,-0.25119102001190186,0.3238608241081238
3.1848046875,-0.5773654580116272,-0.2561507821083069,0.38330885767936707
3.194814697265625,-0.5595846176147461,-0.22979187965393066,0.41735684871673584
3.20482470703125,-0.5069463849067688,-0.1667105108499527,0.42852333188056946
3.2148037109375,-0.42804601788520813,-0.10722480714321136,0.40790751576423645
3.224813720703125,-0.3516303300857544,-0.09982684254646301,0.35488608479499817
3.234823974609375,-0.3019125759601593,-0.13191579282283783,0.27198904752731323
3.244802734375,-0.2859048843383789,-0.17672502994537354,0.1897355318069458
3.254812744140625,-0.2987181544303894,-0.22847451269626617,0.12678533792495728
3.264791748046875,-0.32703763246536255,-0.26051950454711914,0.11208221316337585
3.2748017578125,-0.35728663206100464,-0.2607461214065552,0.14260071516036987
3.28481103515625,-0.35059648752212524,-0.26758649945259094,0.18315556645393372
3.294790771484375,-0.3108466863632202,-0.28156915307044983,0.20338226854801178
3.304800048828125,-0.2860105633735657,-0.2891766428947449,0.17064444720745087
3.314809814453125,-0.26519957184791565,-0.27434229850769043,0.08191697299480438
3.324788818359375,-0.2390449494123459,-0.26000887155532837,-0.008072801865637302
3.334798828125,-0.22468625009059906,-0.2526785135269165,-0.06331022828817368
3.344808837890625,-0.2213066965341568,-0.257485032081604,-0.0634060651063919
3.354787841796875,-0.23933656513690948,-0.24049142003059387,-0.025389978662133217
3.3647978515625,-0.23749658465385437,-0.23072609305381775,0.019802238792181015
3.374777099609375,-0.206085667014122,-0.24998526275157928,0.06196620687842369
3.38478662109375,-0.16057142615318298,-0.28156259655952454,0.09839412569999695
3.394796630859375,-0.12862227857112885,-0.2953724265098572,0.13196806609630585
3.404775634765625,-0.13727860152721405,-0.27377623319625854,0.14798341691493988
3.41478564453125,-0.17690031230449677,-0.2076430469751358,0.12838761508464813
3.424795654296875,-0.20011165738105774,-0.1039000079035759,0.08788731694221497
3.434774658203125,-0.20009168982505798,-0.007608897518366575,0.013566476292908192
3.444784912109375,-0.2083703726530075,0.06200917810201645,-0.06458384543657303
3.454793701171875,-0.18672287464141846,0.13044150173664093,-0.11420092731714249
3.46477392578125,-0.15290392935276031,0.16096244752407074,-0.11587881296873093
3.47478271484375,-0.11372749507427216,0.15633654594421387,-0.0668574720621109
3.484792724609375,-0.08691425621509552,0.0989745557308197,0.023096801713109016
3.49477197265625,-0.08667776733636856,0.002336164703592658,0.13957840204238892
3.50478173828125,-0.06199212744832039,-0.05713355168700218,0.23224228620529175
3.514760986328125,-0.023626096546649933,-0.11195366084575653,0.2508183717727661
3.524770751953125,0.017995387315750122,-0.1678188443183899,0.1864447444677353
3.53478076171875,0.017898447811603546,-0.25144848227500916,0.04887889325618744
3.544759765625,-0.036763738840818405,-0.35894858837127686,-0.08297894895076752
3.554769775390625,-0.09794320911169052,-0.4011327922344208,-0.14950630068778992
3.56477978515625,-0.16023345291614532,-0.3976745903491974,-0.13600696623325348
3.5747587890625,-0.2103259116411209,-0.3323770761489868,-0.06526301801204681
3.58476904296875,-0.227218896150589,-0.21747614443302155,0.022665396332740784
3.59477783203125,-0.21227189898490906,-0.08106023818254471,0.09433772414922714
3.604758056640625,-0.1972162425518036,0.025595327839255333,0.1396181434392929
3.614766845703125,-0.19758163392543793,0.07663241028785706,0.16593550145626068
3.624746826171875,-0.20142005383968353,0.08495008200407028,0.18333441019058228
3.634755859375,-0.20365364849567413,0.06429780274629593,0.18448062241077423
3.644765625,-0.19955770671367645,0.02874886244535446,0.18270936608314514
3.654744873046875,-0.19816114008426666,0.007478728890419006,0.17954792082309723
3.664754638671875,-0.20579323172569275,-0.011811831966042519,0.17427536845207214
3.6747646484375,-0.22652700543403625,0.0006733336485922337,0.17958678305149078
3.68474365234375,-0.2570798397064209,0.01830119639635086,0.1907268613576889
3.694753662109375,-0.2768636643886566,0.021511636674404144,0.18130247294902802
3.704763916015625,-0.2877509593963623,-0.011339414864778519,0.13502328097820282
3.71474267578125,-0.3005218803882599,-0.06586417555809021,0.07193831354379654
3.7247529296875,-0.32547035813331604,-0.1521572321653366,0.019416186958551407
3.73477685546875,-0.3823552131652832,-0.25341886281967163,-0.011806980706751347
3.744755859375,-0.438814252614975,-0.31065279245376587,-0.005967398639768362
3.754765869140625,-0.46968746185302734,-0.3487951457500458,-0.0022541529033333063
3.764744873046875,-0.4911208152770996,-0.3746710419654846,-0.005168426316231489
3.774754638671875,-0.5046417117118835,-0.36254993081092834,-0.002253063954412937
3.784763916015625,-0.5082905292510986,-0.3231472969055176,0.015550347045063972
3.79474365234375,-0.5075677633285522,-0.2782149612903595,0.054915864020586014
3.8047529296875,-0.5057333111763,-0.25196802616119385,0.11288947612047195
3.814762939453125,-0.5081993937492371,-0.23471924662590027,0.17806261777877808
3.824741943359375,-0.4937531054019928,-0.21710792183876038,0.23057983815670013
3.834751708984375,-0.48916181921958923,-0.20104612410068512,0.2787284553050995
3.84476171875,-0.48209860920906067,-0.22063012421131134,0.310591459274292
3.85474072265625,-0.46658650040626526,-0.26175811886787415,0.32285720109939575
3.864750732421875,-0.43571165204048157,-0.33821702003479004,0.31026822328567505
3.874729736328125,-0.39944684505462646,-0.43669164180755615,0.2886721193790436
3.88473974609375,-0.35789060592651367,-0.5389261841773987,0.2820887863636017
3.89474951171875,-0.3522748053073883,-0.6252951622009277,0.3965005874633789
3.904728759765625,-0.35951778292655945,-0.8806710243225098,0.39319878816604614
3.914738525390625,-0.4202147126197815,-0.9584728479385376,0.31858208775520325
3.924747802734375,-0.4779483377933502,-0.8252061009407043,0.20873312652111053
3.9347275390625,-0.5564876198768616,-0.577021062374115,0.09003576636314392
3.94473779296875,-0.6731148362159729,-0.25182098150253296,0.001480062841437757
3.954746826171875,-0.7570406198501587,0.06258329749107361,-0.058156367391347885
3.964726806640625,-0.7657865285873413,0.22134560346603394,-0.10018743574619293
3.97473583984375,-0.7316285371780396,0.19100846350193024,-0.13191047310829163
