seconds_elapsed,z,y,x
0.019088623046875,0.3621528446674347,0.30302196741104126,0.07821889966726303
0.029098388671875,0.5500460267066956,0.45247215032577515,0.20078635215759277
0.039077392578125,0.6437610387802124,0.6248870491981506,0.24152162671089172
0.04908740234375,0.6616969108581543,0.7788251638412476,0.32723814249038696
0.059097412109375,0.7498667240142822,0.8289504647254944,0.4676031470298767
0.069062255859375,0.6952349543571472,0.6302784085273743,0.5571470856666565
0.079072021484375,0.5847557187080383,0.4435311555862427,0.6148732900619507
0.089082275390625,0.46797478199005127,0.2503076195716858,0.6742897629737854
0.09906103515625,0.3537965416908264,0.07381755113601685,0.7110501527786255
0.1090712890625,0.25450778007507324,0.02329764887690544,0.6239176392555237
0.119080322265625,0.17079365253448486,0.09896883368492126,0.555977463722229
0.129060302734375,0.08189653605222702,0.22400878369808197,0.5517427921295166
0.1390693359375,0.08406209945678711,0.4404780864715576,0.5299358367919922
0.1490791015625,0.1590745449066162,0.6426764726638794,0.4726411700248718
0.159058349609375,0.2824161648750305,0.7128918766975403,0.4825138449668884
0.169068115234375,0.433636337518692,0.7075570225715637,0.4988352656364441
0.179078369140625,0.5354832410812378,0.5624280571937561,0.4454103112220764
0.18905712890625,0.6129436492919922,0.30299675464630127,0.3820454478263855
0.1990673828125,0.5968965291976929,-0.0863393247127533,0.37941089272499084
0.209077392578125,0.6200391054153442,-0.48057636618614197,0.642532229423523
0.21905615234375,0.819473385810852,-0.7412146925926208,1.1179252862930298
0.22906640625,0.8872050046920776,-0.9943108558654785,1.428862452507019
0.239076171875,0.8364570736885071,-0.7808656096458435,1.1309802532196045
0.249055419921875,0.7104464173316956,-0.4408308267593384,0.3352527320384979
0.259065185546875,0.44108328223228455,-0.31517666578292847,-0.6154586672782898
0.26907421875,0.08774227648973465,-0.3096708655357361,-1.5145174264907837
0.27905419921875,-0.3083590567111969,-0.1493939310312271,-1.9320563077926636
0.289063232421875,-0.5641351938247681,-0.15354286134243011,-1.7331736087799072
0.299073486328125,-0.6148470640182495,-0.3072890639305115,-1.2406476736068726
0.309052001953125,-0.48467281460762024,-0.49125275015830994,-0.812992513179779
0.319062255859375,-0.30737754702568054,-0.6546324491500854,-0.5495012998580933
0.329072265625,-0.15655982494354248,-0.5983603596687317,-0.4848695695400238
0.339051025390625,-0.07875490933656693,-0.35159385204315186,-0.5094119906425476
0.349061279296875,-0.04087463766336441,-0.08528280258178711,-0.4633236229419708
0.359071044921875,-0.04816966503858566,0.07251030206680298,-0.37302353978157043
0.36905029296875,-0.05632106959819794,0.05500960350036621,-0.24644431471824646
0.37906005859375,-0.07999515533447266,0.08118849247694016,-0.020099833607673645
0.389069091796875,-0.006325466558337212,0.09792006760835648,0.29576998949050903
0.399049072265625,0.06848866492509842,0.1311342567205429,0.7072000503540039
0.40905810546875,0.13542376458644867,-0.010685736313462257,1.1299188137054443
0.419068359375,0.16807399690151215,-0.3398531377315521,1.5647929906845093
0.429048095703125,0.2534821033477783,-0.7820249199867249,1.9390254020690918
0.439057373046875,0.29922282695770264,-1.0052480697631836,2.1417417526245117
0.4490673828125,0.2915174961090088,-0.9980471134185791,2.123053789138794
0.45904638671875,0.2442627251148224,-0.8153617978096008,1.8366038799285889
0.469056396484375,0.1532081812620163,-0.49442607164382935,1.450364351272583
0.479066162109375,0.11119666695594788,-0.29305070638656616,1.056175708770752
0.489076416015625,0.1558232605457306,-0.24706244468688965,0.800438642501831
0.49905517578125,0.25776368379592896,-0.373990923166275,0.7088775038719177
0.5090654296875,0.4157536029815674,-0.6130601763725281,0.7539621591567993
0.519074462890625,0.5630747675895691,-0.8778183460235596,0.890681266784668
0.529054443359375,0.6646929979324341,-1.0727087259292603,1.0409411191940308
0.5390634765625,0.6688905358314514,-1.0428786277770996,1.1144962310791016
0.5490732421875,0.5450477004051208,-0.789564847946167,1.141082525253296
0.55905224609375,0.4155385196208954,-0.4081748127937317,1.0977833271026611
0.569062255859375,0.3870570659637451,-0.06070100888609886,0.9955325722694397
0.579072021484375,0.5715693235397339,0.13710501790046692,0.8367536067962646
0.58905126953125,0.7913498878479004,0.009570765309035778,0.551895260810852
0.59906103515625,0.7659094929695129,-0.41457900404930115,0.03151293471455574
0.6090712890625,0.5120903253555298,-0.7252447009086609,-0.8584877848625183
0.619050048828125,0.07878897339105606,-0.6192318797111511,-1.7599753141403198
0.629060302734375,-0.3849017322063446,-0.3290541470050812,-2.334373950958252
0.6390693359375,-0.6893333792686462,-0.014494260773062706,-2.648470878601074
0.64904931640625,-0.7409124374389648,0.0883365124464035,-2.892289876937866
0.659058349609375,-0.6028647422790527,0.07698607444763184,-2.8692123889923096
0.669068115234375,-0.31887006759643555,-0.023416699841618538,-2.573056697845459
0.67904833984375,-0.013042114675045013,-0.17652113735675812,-2.1759023666381836
0.68905712890625,0.2767210006713867,-0.366749107837677,-1.8942630290985107
0.6990673828125,0.5588245987892151,-0.4514896273612976,-1.7921106815338135
0.70904638671875,0.8391862511634827,-0.21158620715141296,-1.741262674331665
0.71905615234375,1.120951771736145,0.2957109212875366,-1.5660704374313354
0.72906640625,1.4232423305511475,0.6506788730621338,-1.2956048250198364
0.739045166015625,1.6762561798095703,0.7221139669418335,-0.8514528274536133
0.749055419921875,1.9790400266647339,0.5597937703132629,-0.41051185131073
0.759065185546875,2.100815534591675,0.30314913392066956,-0.0006940045859664679
0.76904443359375,1.9942984580993652,0.052997637540102005,0.3987141251564026
0.77905419921875,1.7833094596862793,-0.10193703323602676,0.8089494705200195
0.789063232421875,1.5123178958892822,-0.15785329043865204,1.2252484560012817
0.79904345703125,1.1974380016326904,-0.1767456829547882,1.6075879335403442
0.809052001953125,0.8926631808280945,-0.15042832493782043,1.9255797863006592
0.819062255859375,0.6477236151695251,-0.08438647538423538,2.16210675239563
0.829041259765625,0.4567597508430481,0.014372330158948898,2.2924587726593018
0.839051025390625,0.3460659384727478,0.09986717253923416,2.314307928085327
0.849061279296875,0.2872430980205536,-0.016323084011673927,2.2815375328063965
0.8590400390625,0.25938087701797485,-0.23775599896907806,2.2263782024383545
0.86905029296875,0.2375485599040985,-0.4327920973300934,2.2244937419891357
0.87906005859375,0.20283354818820953,-0.5976502895355225,2.3071742057800293
0.889039306640625,0.1741851270198822,-0.7585355639457703,2.448558807373047
0.899049072265625,0.16686253249645233,-1.0186641216278076,2.6271936893463135
0.90905810546875,0.21766339242458344,-1.4106183052062988,2.8350229263305664
0.919038330078125,0.374729186296463,-1.777246117591858,2.9601728916168213
0.929048095703125,0.5870616436004639,-1.8860729932785034,2.8813676834106445
0.939057373046875,0.7635277509689331,-1.8131654262542725,2.583195924758911
0.949037109375,0.9010288715362549,-1.4903860092163086,1.9567186832427979
0.95904638671875,1.0495812892913818,-0.8400601148605347,1.041579008102417
0.969056396484375,1.2317734956741333,-0.23160609602928162,0.2967051863670349
0.97903515625,1.4997597932815552,-0.1775701642036438,-0.12913797795772552
0.98904541015625,1.778161644935608,-0.32911601662635803,-0.2839888036251068
0.99905517578125,1.8802884817123413,-0.18486808240413666,0.012998990714550018
1.009034423828125,1.842061996459961,0.36363521218299866,0.791894257068634
1.019044189453125,1.9234834909439087,1.0342769622802734,1.6369664669036865
1.029054443359375,2.240936756134033,1.6213045120239258,2.2364988327026367
1.039033203125,2.617051124572754,1.8668397665023804,2.4753241539001465
1.049043212890625,2.861650228500366,1.903943419456482,2.4500458240509033
1.05905224609375,3.0606274604797363,2.042396306991577,2.20023775100708
1.0690556640625,3.1382038593292236,2.341024398803711,1.8061944246292114
1.079064453125,3.1703836917877197,3.2116599082946777,1.2295852899551392
1.089074462890625,2.8769984245300293,3.0816397666931152,1.3551048040390015
1.099053466796875,2.562164783477783,3.2058258056640625,1.725306510925293
1.1090634765625,2.1334617137908936,3.5957155227661133,1.971181869506836
1.11907373046875,2.193558931350708,3.6943135261535645,1.8730764389038086
1.129052490234375,2.1811115741729736,3.7170963287353516,1.9052761793136597
1.139062744140625,2.1653237342834473,3.5047590732574463,2.054004430770874
1.149072509765625,2.119166851043701,3.140669345855713,2.320754051208496
1.1590517578125,2.103374719619751,2.87471342086792,2.559424877166748
1.1690615234375,2.020528554916382,2.7995476722717285,2.6662986278533936
1.179071533203125,1.8187497854232788,2.956818103790283,2.7385854721069336
1.189050537109375,1.5585932731628418,3.2195534706115723,2.8876116275787354
1.199060546875,1.2370535135269165,3.3312466144561768,2.960076332092285
1.209069580078125,0.9819473028182983,3.419407606124878,3.03592586517334
1.219049560546875,0.8451045751571655,3.3712804317474365,3.1210410594940186
1.22905859375,0.8135110139846802,3.17745304107666,3.2788357734680176
1.23906884765625,0.8105126619338989,2.922046422958374,3.483053684234619
1.249047607421875,0.8046345114707947,2.7139766216278076,3.6478993892669678
1.259057861328125,0.8067682385444641,2.6755895614624023,3.715751886367798
1.269067626953125,0.7403320074081421,2.7010066509246826,3.6738030910491943
1.279077880859375,0.608604907989502,2.779966354370117,3.5693585872650146
1.289056640625,0.480457603931427,2.9302990436553955,3.4291932582855225
1.299066650390625,0.40193718671798706,3.0608551502227783,3.246537685394287
1.309075927734375,0.4210059642791748,3.0640366077423096,2.9914345741271973
1.3190556640625,0.5523608922958374,2.911774158477783,2.709798574447632
1.329064697265625,0.7868857383728027,2.6148760318756104,2.413084030151367
1.339074462890625,1.0835089683532715,2.400073766708374,2.0795836448669434
1.349053466796875,1.41761314868927,2.339231014251709,1.5961167812347412
1.359063720703125,1.7252564430236816,2.245961904525757,0.9735642671585083
1.369073486328125,1.9280776977539062,2.0639960765838623,0.45356905460357666
1.379052734375,1.949325680732727,1.9373904466629028,0.1513628363609314
1.3890625,1.9037044048309326,1.9849183559417725,0.020890042185783386
1.39907275390625,1.8719453811645508,2.088056802749634,-0.1878185123205185
1.409051513671875,1.8357874155044556,2.1046571731567383,-0.4905528426170349
1.4190615234375,1.7909125089645386,2.0021872520446777,-0.7995142340660095
1.429071533203125,1.768133521080017,1.8300666809082031,-1.0494673252105713
1.439050537109375,1.7550678253173828,1.6205109357833862,-1.2177212238311768
1.449060546875,1.7617088556289673,1.4180065393447876,-1.3172181844711304
1.459069580078125,1.800889253616333,1.254582405090332,-1.3786081075668335
1.4690498046875,1.8734383583068848,1.1459909677505493,-1.4119701385498047
1.47905859375,1.9663017988204956,1.2102059125900269,-1.51760995388031
1.489068603515625,2.044318199157715,1.2489093542099,-1.6376924514770508
1.4990478515625,2.1400279998779297,1.3706393241882324,-1.740549921989441
1.5090576171875,2.253876209259033,1.5364978313446045,-1.8059403896331787
1.51906787109375,2.337130069732666,1.6637452840805054,-1.79243803024292
1.529046630859375,2.339881181716919,1.7659542560577393,-1.625376582145691
1.539056884765625,2.2744483947753906,1.8748828172683716,-1.3849023580551147
1.549066650390625,2.170205593109131,1.958012342453003,-1.140992283821106
1.559045654296875,2.045973539352417,2.0042667388916016,-0.9286884069442749
1.5690556640625,1.9365571737289429,2.0299341678619385,-0.6766058206558228
1.579064453125,1.8942761421203613,2.038341999053955,-0.4129014313220978
1.589044921875,1.8955329656600952,2.085001230239868,-0.20268720388412476
1.599053466796875,1.9464800357818604,2.1146140098571777,-0.030075395479798317
1.6090634765625,2.040738344192505,2.0869028568267822,0.10621054470539093
1.619042724609375,2.0994319915771484,1.993598461151123,0.22051633894443512
1.629052490234375,2.111738681793213,1.9101390838623047,0.32718685269355774
1.639062744140625,2.1164186000823975,1.8593084812164307,0.46505871415138245
1.64904150390625,2.1050329208374023,1.8256011009216309,0.5508678555488586
1.6590517578125,2.0096850395202637,1.8948739767074585,0.5121505260467529
1.6690615234375,1.9126312732696533,2.111787796020508,0.2978059649467468
1.67904052734375,1.9364758729934692,2.3431637287139893,0.0861862376332283
1.689050537109375,2.0522074699401855,2.373037576675415,-0.022651832550764084
1.699060546875,2.235487937927246,2.4521307945251465,-0.07878220826387405
1.709039794921875,2.4682459831237793,2.4364986419677734,-0.23084896802902222
1.719049560546875,2.600142240524292,2.2952706813812256,-0.4527938663959503
1.72905859375,2.733304262161255,2.12715220451355,-0.5537066459655762
1.73903857421875,3.0600204467773438,1.7948371171951294,-0.6464442014694214
1.749047607421875,3.5429329872131348,1.3279680013656616,-0.8065425753593445
1.759057861328125,3.9773528575897217,0.6997250914573669,-1.0426239967346191
1.76903662109375,4.19838809967041,-0.11926056444644928,-1.2916643619537354
1.779046875,4.144214153289795,-0.9780876040458679,-1.6186375617980957
1.789056640625,3.9183106422424316,-1.6949390172958374,-1.914945363998413
1.799035888671875,3.7766857147216797,-2.234508991241455,-2.041187286376953
1.809045654296875,3.885251760482788,-2.5224928855895996,-2.3137125968933105
1.8190556640625,4.4710235595703125,-2.659964084625244,-2.5587615966796875
1.82903466796875,5.323193073272705,-3.134507894515991,-2.6794021129608154
1.839044677734375,5.482830047607422,-3.517712116241455,-3.370462656021118
1.849053466796875,4.394193172454834,-3.2595314979553223,-5.0069122314453125
1.85903369140625,2.4336578845977783,-2.298011541366577,-6.917191505432129
1.86904248046875,0.11551360785961151,-1.0736002922058105,-8.395526885986328
1.879052734375,-2.6410892009735107,0.06146923452615738,-8.435538291931152
1.889031494140625,-5.730110168457031,1.2518922090530396,-8.091114044189453
1.899041748046875,-8.210953712463379,1.981498122215271,-8.640764236450195
1.909051513671875,-10.430609703063965,2.0577728748321533,-9.391206741333008
1.91903076171875,-12.84327220916748,1.1034064292907715,-10.734048843383789
1.92904052734375,-15.07727336883545,-0.630374014377594,-11.424005508422852
1.939050537109375,-16.415403366088867,-2.3235650062561035,-11.276735305786133
1.949029541015625,-17.929067611694336,-3.764587640762329,-10.666117668151855
1.95903955078125,-20.657033920288086,-4.325448513031006,-10.012635231018066
1.9690498046875,-23.356945037841797,-4.935571670532227,-9.17141342163086
1.979028564453125,-24.571340560913086,-5.718154430389404,-7.146948337554932
1.989038818359375,-24.197065353393555,-6.145515441894531,-4.915534973144531
1.9990478515625,-22.673419952392578,-6.229812145233154,-2.8951187133789062
2.00902783203125,-21.010292053222656,-5.551673889160156,-1.0450643301010132
2.019036865234375,-19.825725555419922,-4.541721820831299,0.898989737033844
2.029046630859375,-19.03264045715332,-3.8607370853424072,2.5976836681365967
2.03902587890625,-17.942930221557617,-3.52559232711792,3.930941104888916
2.04903564453125,-16.211591720581055,-3.276710271835327,5.146883487701416
2.059045654296875,-14.425538063049316,-3.014530658721924,5.880378723144531
2.06900927734375,-12.738824844360352,-2.3943779468536377,6.056345462799072
2.07901904296875,-11.268660545349121,-1.8359001874923706,6.08033561706543
2.089029296875,-10.091897964477539,-1.4052468538284302,5.971467971801758
2.099008056640625,-9.0440673828125,-0.968562126159668,5.728261947631836
2.109018310546875,-7.962855339050293,-0.6892838478088379,5.374013900756836
2.119027099609375,-6.79704475402832,-0.49332094192504883,4.987061977386475
2.129037109375,-5.542971611022949,-0.28928154706954956,4.5723347663879395
2.13901611328125,-4.362208366394043,-0.005692363251000643,4.177765846252441
2.149026123046875,-3.300792932510376,0.2158125936985016,3.862306594848633
2.1590361328125,-2.400219678878784,0.3255077600479126,3.3735673427581787
2.16901513671875,-1.7400201559066772,0.36665815114974976,2.754732370376587
2.17902490234375,-1.0804860591888428,0.27662190794944763,2.1531248092651367
2.18903515625,-0.38716381788253784,0.035919032990932465,1.6602399349212646
2.199013916015625,0.2731706500053406,-0.11639361828565598,1.2345921993255615
2.209024169921875,0.8967748284339905,-0.12428456544876099,0.8863136172294617
2.2190341796875,1.602428674697876,-0.1353219449520111,0.4891815185546875
2.22901318359375,2.2704734802246094,-0.17856448888778687,0.10244634002447128
2.239023193359375,2.774510145187378,-0.22648993134498596,-0.15505631268024445
2.249031982421875,3.05815052986145,-0.25656846165657043,-0.2827383577823639
2.25901220703125,3.2070469856262207,-0.1934293657541275,-0.34547966718673706
2.269021240234375,3.3470072746276855,-0.08193719387054443,-0.3749845623970032
2.27903125,3.467581272125244,-0.01245669275522232,-0.4024648368358612
2.28901025390625,3.626864433288574,0.12815608084201813,-0.6056808233261108
2.299020263671875,3.929307699203491,0.22846536338329315,-0.8562560677528381
2.3090302734375,4.377742290496826,0.29823538661003113,-1.0613677501678467
2.319009033203125,4.972496509552002,0.2412610501050949,-1.0686627626419067
2.329019287109375,5.377682685852051,-0.18888233602046967,-0.9061282873153687
2.339029052734375,5.473335266113281,-0.6383358836174011,-0.8871282339096069
2.34900830078125,5.410038948059082,-0.7880668044090271,-1.0267106294631958
2.359018310546875,5.158790588378906,-0.807562530040741,-1.2952711582183838
2.36902685546875,4.803804397583008,-0.7182214260101318,-1.7187508344650269
2.379007080078125,4.545700550079346,-0.4518689513206482,-2.287968158721924
2.38901611328125,4.404699325561523,-0.12861578166484833,-2.913013458251953
2.399026123046875,4.31865119934082,0.0648706778883934,-3.5421142578125
2.409005126953125,4.3187055587768555,0.2117874175310135,-4.047614097595215
2.41901513671875,4.391412734985352,0.27749401330947876,-4.395172119140625
2.429025146484375,4.423130035400391,0.5514874458312988,-4.62283992767334
2.439004150390625,4.351382732391357,0.8937947750091553,-4.702215671539307
2.44901416015625,4.038031101226807,1.3319333791732788,-4.951586723327637
2.45902392578125,3.6116137504577637,1.9438706636428833,-5.403863430023193
2.469003173828125,3.1060240268707275,2.616372585296631,-6.041387557983398
2.47901318359375,2.5522494316101074,3.166212320327759,-6.845666408538818
2.489023193359375,2.1470260620117188,3.3350682258605957,-7.423117160797119
2.499002197265625,1.8514443635940552,3.2092747688293457,-7.5663161277771
2.50901220703125,1.6983672380447388,2.8770923614501953,-7.2678608894348145
2.519021240234375,1.9398077726364136,2.8727402687072754,-6.643411159515381
2.5290009765625,2.1614487171173096,2.619826555252075,-5.779044151306152
2.53901025390625,1.761043906211853,2.425842761993408,-4.359925270080566
2.549020263671875,1.4632092714309692,2.060366630554199,-3.1679630279541016
2.558999267578125,1.202064037322998,1.6022744178771973,-2.8168342113494873
2.56900927734375,1.0276650190353394,-1.0136139392852783,-1.5806840658187866
2.57901904296875,1.8361657857894897,-1.0540690422058105,-1.6313399076461792
2.588998291015625,1.8937387466430664,0.28962308168411255,-2.078934669494629
2.599008056640625,1.5554763078689575,1.0826141834259033,-1.8064278364181519
2.609018310546875,1.737309455871582,1.6439001560211182,-1.426417350769043
2.618997314453125,1.6699585914611816,1.9060044288635254,-1.2305712699890137
2.629007080078125,1.4509966373443604,1.7072356939315796,-0.8350439071655273
2.63901611328125,1.0324679613113403,1.3715766668319702,-0.48180869221687317
2.648995849609375,0.6431676745414734,1.0438417196273804,-0.22955647110939026
2.659005126953125,0.40741366147994995,0.7710248827934265,-0.02677423134446144
2.66901513671875,0.31973469257354736,0.5823436379432678,0.19597522914409637
2.678994140625,0.3653380870819092,0.622429609298706,0.41316354274749756
2.689004150390625,0.4518074691295624,0.8376468420028687,0.6442713737487793
2.699013916015625,0.5574049353599548,1.1254098415374756,0.8344765305519104
2.7089931640625,0.5928670763969421,1.270835280418396,0.8463534712791443
2.7190029296875,0.5428155064582825,1.3001999855041504,0.5895615816116333
2.72901318359375,0.4962032437324524,1.3430049419403076,0.23028889298439026
2.7389921875,0.41364163160324097,1.2632980346679688,-0.06803049147129059
2.749002197265625,0.38714292645454407,0.8964760899543762,-0.09051689505577087
2.75901220703125,0.4758773744106293,0.4134049117565155,0.13171245157718658
2.7689912109375,0.5747197866439819,0.043353352695703506,0.38225945830345154
2.779001220703125,0.6906601786613464,-0.1804252713918686,0.556201696395874
2.78901025390625,0.8630556464195251,-0.2709448039531708,0.6151754856109619
2.798990234375,0.979137122631073,-0.2633533477783203,0.5388548970222473
2.808999267578125,0.9460321664810181,-0.2207304984331131,0.33797505497932434
2.819009033203125,0.7635208368301392,-0.12314322590827942,0.004479122348129749
2.82898828125,0.49603644013404846,0.04672704264521599,-0.34158214926719666
2.838998046875,0.31116530299186707,0.17716224491596222,-0.43888384103775024
2.84900830078125,0.2560274600982666,0.29498207569122314,-0.37916404008865356
2.858987060546875,0.2769371271133423,0.4929387867450714,-0.2573475241661072
2.868997314453125,0.22695091366767883,0.5860969424247742,-0.10976418852806091
2.879007080078125,0.1454557180404663,0.6064949035644531,0.047508347779512405
2.888986083984375,0.10958106815814972,0.5068734884262085,0.24654768407344818
2.89899609375,0.11855079978704453,0.3367037773132324,0.39448752999305725
2.909005126953125,0.140438511967659,0.21046222746372223,0.39321479201316833
2.918985107421875,0.2522141635417938,0.2863423228263855,0.27478012442588806
2.928994140625,0.3970717787742615,0.45148012042045593,0.11372625082731247
2.939004150390625,0.5182158946990967,0.6047372817993164,-0.009708520956337452
2.948983154296875,0.60426926612854,0.6742710471153259,-0.061393022537231445
2.958992919921875,0.6353647112846375,0.7010775804519653,-0.01052192971110344
2.969003173828125,0.5638753175735474,0.7989567518234253,0.09642529487609863
2.97901318359375,0.38633230328559875,0.8864148259162903,0.23038096725940704
2.9889921875,0.11645739525556564,0.9014946818351746,0.37061768770217896
2.999002197265625,-0.07953547686338425,0.7357955574989319,0.5517492294311523
3.00901220703125,-0.0018739743391051888,0.5796152949333191,0.6438804864883423
3.0189912109375,0.2876648008823395,0.4020940661430359,0.5429654717445374
3.0290009765625,0.6531756520271301,0.3190588355064392,0.31786686182022095
3.03901025390625,0.9106898307800293,0.3618810474872589,0.15414388477802277
3.048989990234375,1.0318970680236816,0.4303322732448578,0.01602010801434517
3.058999267578125,0.985393226146698,0.4623692035675049,-0.06601918488740921
3.068998046875,0.8545225858688354,0.19970056414604187,-0.04861170053482056
3.07897705078125,0.7232033014297485,-0.25133946537971497,-0.0018130452372133732
3.088987060546875,0.5807012915611267,-0.6914092302322388,-0.036648526787757874
