seconds_elapsed,z,y,x
0.026513916015625,0.2416359931230545,0.2720443308353424,0.36886417865753174
0.036523681640625,0.2556849718093872,0.5033755302429199,0.29812636971473694
0.046533935546875,0.3214610517024994,0.5968931317329407,0.21627876162528992
0.0565126953125,0.48042914271354675,0.6429301500320435,0.23355735838413239
0.06652294921875,0.6353479027748108,0.6346603631973267,0.23910295963287354
0.07653271484375,0.7318083643913269,0.5472729802131653,0.19599011540412903
0.086511962890625,0.7624626755714417,0.3470411002635956,0.17006294429302216
0.096521728515625,0.7924413681030273,0.19249065220355988,0.19277197122573853
0.1065009765625,0.8541467785835266,0.04029008373618126,0.21775361895561218
0.116510986328125,0.8397478461265564,-0.17503102123737335,0.3416755497455597
0.126520751953125,0.8019459247589111,-0.33353084325790405,0.5601742267608643
0.1365,0.7923611998558044,-0.3505529761314392,0.753263533115387
0.146509765625,0.7922674417495728,-0.1467018574476242,0.8851235508918762
0.156518798828125,0.799275815486908,0.23232296109199524,0.929598867893219
0.166498779296875,0.8208655714988708,0.6078283190727234,0.883980929851532
0.1765078125,0.8659435510635376,0.8057458996772766,0.749714732170105
0.18651806640625,0.9082598090171814,0.8962115049362183,0.6141248345375061
0.196496826171875,0.9643446803092957,0.7535286545753479,0.5012637972831726
0.206507080078125,1.0648044347763062,0.4696232080459595,0.4142191410064697
0.216516845703125,1.2453862428665161,0.26439282298088074,0.39418232440948486
0.22649609375,1.4207185506820679,0.16215622425079346,0.4847663640975952
0.236505859375,1.497344970703125,0.0914279967546463,0.7384828329086304
0.246484619140625,1.5261895656585693,0.11685241013765335,0.9652094841003418
0.256494873046875,1.5314522981643677,0.39178305864334106,1.1000099182128906
0.266504638671875,1.4785104990005493,0.7863960862159729,1.1649502515792847
0.27648388671875,1.4154646396636963,1.1172683238983154,1.1544106006622314
0.28649365234375,1.3877266645431519,1.4097797870635986,1.0510337352752686
0.296502685546875,1.397142767906189,1.581913948059082,0.9261789321899414
0.306482666015625,1.4202693700790405,1.5177456140518188,0.8516590595245361
0.31649169921875,1.4744426012039185,1.3305469751358032,0.7791864275932312
0.326501953125,1.5631414651870728,1.1511690616607666,0.6721837520599365
0.336480712890625,1.6723166704177856,1.0903887748718262,0.5401681661605835
0.346490966796875,1.7443922758102417,1.1337189674377441,0.41193315386772156
0.356500732421875,1.7660202980041504,1.295064926147461,0.320971816778183
0.36647998046875,1.746543049812317,1.575521469116211,0.27148255705833435
0.376489990234375,1.6594164371490479,1.895825743675232,0.25074851512908936
0.38646875,1.585608959197998,2.183593988418579,0.23663204908370972
0.39647900390625,1.5742188692092896,2.4263453483581543,0.19933634996414185
0.40648876953125,1.572159767150879,2.5474648475646973,0.14440341293811798
0.416468017578125,1.5497157573699951,2.50508975982666,0.11266864836215973
0.426477783203125,1.5565600395202637,2.3421785831451416,0.07891696691513062
0.436488037109375,1.6043845415115356,2.115697145462036,0.08900927752256393
0.446466796875,1.6709744930267334,1.9170258045196533,0.15158168971538544
0.456476806640625,1.7409511804580688,1.7935497760772705,0.2521463930606842
0.466486083984375,1.7876050472259521,1.7640435695648193,0.38665351271629333
0.4764658203125,1.7958232164382935,1.8195878267288208,0.48552364110946655
0.486474853515625,1.7937341928482056,1.9243637323379517,0.5216947793960571
0.49648486328125,1.7462215423583984,2.0486199855804443,0.5125952959060669
0.506463623046875,1.672796368598938,2.17730975151062,0.4876669943332672
0.516473876953125,1.6100170612335205,2.253805160522461,0.4419485032558441
0.52645263671875,1.548752784729004,2.278531789779663,0.3942602276802063
0.536462890625,1.4615906476974487,2.1916985511779785,0.3315145671367645
0.54647265625,1.4087945222854614,2.131662368774414,0.34453675150871277
0.556451904296875,1.4858511686325073,2.116762638092041,0.34493488073349
0.566461669921875,1.4884766340255737,2.0520179271698,0.35518863797187805
0.576471923828125,1.5069992542266846,2.015429735183716,0.4355679154396057
0.58645068359375,1.5185754299163818,2.0011096000671387,0.5566285848617554
0.596460693359375,1.444219946861267,1.931592583656311,0.6020940542221069
0.606469970703125,1.5339598655700684,2.0374786853790283,0.6431827545166016
0.6164482421875,1.5709950923919678,2.0733933448791504,0.526070773601532
0.6264580078125,1.5494637489318848,2.124657154083252,0.37391164898872375
0.63646728515625,1.4931614398956299,2.118882417678833,0.17303232848644257
0.646447021484375,1.5450352430343628,2.2833364009857178,0.05693117156624794
0.656456298828125,1.565056562423706,2.3861353397369385,-0.09513159096240997
0.66643603515625,1.5230028629302979,2.4775798320770264,-0.18542169034481049
0.676445068359375,1.507073163986206,2.542300224304199,-0.27406632900238037
0.686455322265625,1.5018362998962402,2.6113898754119873,-0.3812451958656311
0.69643408203125,1.5404000282287598,2.691256284713745,-0.5028702020645142
0.7064443359375,1.6071555614471436,2.7233726978302,-0.6058003902435303
0.7164541015625,1.6080785989761353,2.6751298904418945,-0.6632668972015381
0.726433349609375,1.5909353494644165,2.592970132827759,-0.6953351497650146
0.736443115234375,1.5820704698562622,2.4940714836120605,-0.717876136302948
0.746453369140625,1.5873183012008667,2.3440639972686768,-0.7269218564033508
0.756432373046875,1.625123143196106,2.1012632846832275,-0.761963963508606
0.766442138671875,1.741299033164978,2.011451005935669,-0.769708514213562
0.776451416015625,1.8262892961502075,1.9946790933609009,-0.7533388733863831
0.78643115234375,1.847257137298584,1.9625147581100464,-0.7286185026168823
0.796440185546875,1.8554377555847168,1.988320231437683,-0.5931994318962097
0.806420166015625,1.8296557664871216,1.8434337377548218,-0.4661540389060974
0.816428955078125,1.9145622253417969,1.7334635257720947,-0.3980490267276764
0.826439208984375,1.9260501861572266,1.5793455839157104,-0.46078741550445557
0.83641796875,1.9316375255584717,1.5636075735092163,-0.5125395655632019
0.84642822265625,1.9582899808883667,1.6183043718338013,-0.6071906685829163
0.85643798828125,2.006194829940796,1.6330710649490356,-0.6606482863426208
0.866417236328125,2.109332799911499,1.5977121591567993,-0.5804110765457153
0.87642724609375,2.2534337043762207,1.4943705797195435,-0.4604652225971222
0.88643701171875,2.372969627380371,1.2896490097045898,-0.33322587609291077
0.896416259765625,2.4703357219696045,1.119956612586975,-0.15694139897823334
0.906426025390625,2.56577467918396,1.0245131254196167,-0.0887782946228981
0.916436279296875,2.629326581954956,1.0305489301681519,-0.12081079185009003
0.9264150390625,2.6473145484924316,1.112993836402893,-0.12352127581834793
0.93642529296875,2.659123659133911,1.226333498954773,-0.11409608274698257
0.946404052734375,2.71193265914917,1.3233661651611328,-0.17862415313720703
0.956414306640625,2.7993388175964355,1.3589001893997192,-0.2072155773639679
0.96642333984375,2.9267261028289795,1.273805856704712,-0.11804436147212982
0.9764033203125,3.1116504669189453,1.0976412296295166,0.08370926976203918
0.986412353515625,3.395082473754883,0.9348637461662292,0.39305904507637024
0.996422119140625,3.7542502880096436,0.7812530994415283,0.779109537601471
1.0064013671875,4.1375603675842285,0.5890724658966064,1.1603922843933105
1.016411376953125,4.520413875579834,0.43404319882392883,1.5214998722076416
1.026421142578125,4.801332950592041,0.2916594445705414,1.8459223508834839
1.036400390625,5.022794246673584,0.13722458481788635,2.037716865539551
1.04641015625,5.279465675354004,0.06720919907093048,2.1103529930114746
1.05642041015625,5.512279510498047,0.03327227383852005,2.1069846153259277
1.066399169921875,5.662412643432617,-0.09345848858356476,2.0496580600738525
1.076409423828125,5.786403179168701,-0.21795035898685455,2.0534679889678955
1.08638818359375,5.9143290519714355,-0.29447200894355774,2.1033923625946045
1.0963984375,5.975003242492676,-0.312569260597229,2.1169183254241943
1.1064072265625,6.048462867736816,-0.3493060767650604,2.1673190593719482
1.116386962890625,5.98682975769043,-0.6490552425384521,2.165297746658325
1.126396240234375,5.9360198974609375,-1.0243226289749146,1.9399834871292114
1.13640625,5.998415946960449,-1.2839232683181763,1.6481117010116577
1.14638525390625,5.943482875823975,-1.661515235900879,1.4436134099960327
1.156395263671875,5.783236026763916,-2.1023457050323486,1.3904370069503784
1.166405029296875,5.717408180236816,-2.4822981357574463,1.4893155097961426
1.17638427734375,5.435657501220703,-2.6467645168304443,1.4191001653671265
1.18639404296875,4.850205421447754,-2.3133978843688965,0.647267758846283
1.196404296875,3.984293222427368,-2.000155448913574,-0.8872600197792053
1.206383056640625,2.702761173248291,-1.7751212120056152,-3.159170389175415
1.216393310546875,1.2869559526443481,-1.3086116313934326,-5.687162399291992
1.2263720703125,-0.05038575083017349,-0.8846117854118347,-7.69754695892334
1.23638232421875,-1.3521056175231934,-0.7161532640457153,-9.033723831176758
1.246392333984375,-2.3378186225891113,-0.7119108438491821,-9.923983573913574
1.25637109375,-3.1005077362060547,-1.1423845291137695,-10.569568634033203
1.26638134765625,-3.6707518100738525,-1.8743871450424194,-11.202704429626465
1.276390380859375,-4.123073101043701,-2.511765718460083,-11.8839750289917
1.286370361328125,-4.765626430511475,-3.335360527038574,-12.442048072814941
1.29637939453125,-5.598330020904541,-4.180400848388672,-12.892654418945312
1.30638916015625,-6.505127429962158,-4.677460193634033,-13.33324909210205
1.316368408203125,-8.044442176818848,-4.929586887359619,-13.848958015441895
1.326378173828125,-9.890178680419922,-4.584779262542725,-14.616687774658203
1.336388427734375,-12.044039726257324,-3.751744508743286,-15.592484474182129
1.3463671875,-14.374202728271484,-2.4518587589263916,-16.250850677490234
1.356377197265625,-16.724407196044922,-0.7653564214706421,-16.139867782592773
1.366356201171875,-18.754301071166992,0.5231755375862122,-15.025760650634766
1.376365966796875,-19.765214920043945,1.3060184717178345,-12.776453018188477
1.386376220703125,-19.805452346801758,1.0238838195800781,-9.861123085021973
1.39635498046875,-18.9044132232666,-0.48066574335098267,-6.857797622680664
1.406365234375,-17.046768188476562,-1.9530608654022217,-4.294933795928955
1.416374267578125,-14.924399375915527,-2.6698453426361084,-2.502122402191162
1.426354248046875,-13.017024040222168,-2.4765520095825195,-1.225059986114502
1.436364013671875,-11.386173248291016,-1.425371527671814,-0.14231690764427185
1.446373046875,-9.915016174316406,-0.3394049108028412,0.833288311958313
1.456353271484375,-8.39913272857666,0.32842668890953064,1.8508809804916382
1.466362060546875,-7.010860443115234,0.5651406049728394,2.689394235610962
1.476372314453125,-5.903581142425537,0.6929353475570679,3.1943275928497314
1.486351318359375,-5.164315223693848,0.7921916246414185,3.3758773803710938
1.496361328125,-4.6476545333862305,0.8067785501480103,3.397944927215576
1.50634033203125,-4.174455165863037,0.6658642292022705,3.2771599292755127
1.51635009765625,-3.7769386768341064,0.3418225347995758,3.0805633068084717
1.5263603515625,-3.4159271717071533,-0.00031914934515953064,2.8536174297332764
1.536339111328125,-2.9100189208984375,-0.11348138749599457,2.602874994277954
1.546349365234375,-2.3851706981658936,0.01963653415441513,2.451873779296875
1.556359130859375,-2.070554733276367,0.39730581641197205,2.426093101501465
1.56633837890625,-1.8616883754730225,1.0181505680084229,2.3377718925476074
1.57634814453125,-1.5449810028076172,1.4816691875457764,1.971112608909607
1.586357177734375,-1.3380327224731445,1.8796534538269043,2.119110107421875
1.59633740234375,-0.6678146123886108,1.847091555595398,2.2406396865844727
1.606345947265625,0.012233945541083813,1.4512791633605957,2.3055968284606934
1.616345947265625,0.5608832240104675,0.7026640772819519,2.2721827030181885
1.626324951171875,0.9468072056770325,0.04901299998164177,2.0119807720184326
1.6363349609375,1.1490495204925537,-0.18116001784801483,1.7562510967254639
1.64631396484375,1.3365226984024048,-0.025451447814702988,1.560280680656433
1.65632373046875,1.3680628538131714,0.31564223766326904,1.4010372161865234
1.666333984375,1.320656180381775,0.7632373571395874,1.2551265954971313
1.676312744140625,1.2424404621124268,1.2460787296295166,1.0994131565093994
1.686322998046875,1.113088846206665,1.593587040901184,0.9597979784011841
1.696332763671875,0.9236811399459839,1.709797978401184,0.7664077877998352
1.70631201171875,0.7927520871162415,1.729699730873108,0.5033222436904907
1.716322021484375,0.755650520324707,1.6675671339035034,0.23111599683761597
1.726331787109375,0.7733211517333984,1.5743077993392944,0.001552052446641028
1.73631103515625,0.8343576192855835,1.499936580657959,-0.17967791855335236
1.74632080078125,0.9194341897964478,1.4524542093276978,-0.3232939541339874
1.756330078125,1.0021711587905884,1.4427696466445923,-0.459612637758255
1.766309814453125,1.0415492057800293,1.4568005800247192,-0.6119194626808167
1.776319091796875,1.0228495597839355,1.5221532583236694,-0.8051555156707764
1.786298828125,0.9248326420783997,1.619874358177185,-1.0124653577804565
1.796307861328125,0.7667557001113892,1.6223523616790771,-1.192358374595642
1.806318115234375,0.6081021428108215,1.6094025373458862,-1.3959370851516724
1.816296875,0.45825642347335815,1.6011605262756348,-1.5994281768798828
1.82630712890625,0.3203531503677368,1.514841914176941,-1.672654151916504
1.83631689453125,0.24666936695575714,1.3519874811172485,-1.570359706878662
1.8462958984375,0.2649724781513214,1.195043921470642,-1.3959470987319946
1.856305908203125,0.37703004479408264,1.0659180879592896,-1.2522096633911133
1.866315673828125,0.5495876669883728,0.8882619738578796,-1.1438452005386353
1.876294921875,0.7038185596466064,0.5778036713600159,-1.0601791143417358
1.8863046875,0.8159916996955872,0.25020286440849304,-1.0957788228988647
1.89631396484375,0.8940209746360779,0.006415498908609152,-1.324680209159851
1.906293701171875,0.9025289416313171,-0.16269321739673615,-1.6794052124023438
1.916302734375,0.8321660757064819,-0.19790446758270264,-2.062798500061035
1.92628271484375,0.7814451456069946,-0.12840516865253448,-2.3278777599334717
1.936291748046875,0.7236718535423279,0.004938776139169931,-2.3892428874969482
1.946302001953125,0.6371572017669678,0.21299932897090912,-2.2086217403411865
1.95628076171875,0.5910536050796509,0.3651377558708191,-1.885776162147522
1.966291015625,0.6664741039276123,0.4388897120952606,-1.4768781661987305
1.976301025390625,0.8174497485160828,0.28255975246429443,-1.0987343788146973
1.986280029296875,0.9740846157073975,0.023130124434828758,-0.8161414861679077
1.9962900390625,1.0647979974746704,-0.3021866977214813,-0.6844385862350464
2.0062998046875,1.0335125923156738,-0.5742260813713074,-0.7107822299003601
2.016279052734375,0.9042648077011108,-0.5713291168212891,-0.8640245199203491
2.026288818359375,0.7292978167533875,-0.2566933035850525,-1.0933960676193237
2.036299072265625,0.5513285994529724,0.07808493077754974,-1.318524718284607
2.04627783203125,0.3945560157299042,0.31867164373397827,-1.403953194618225
2.0562880859375,0.32788243889808655,0.4817705452442169,-1.294187068939209
2.066266845703125,0.35734233260154724,0.5128748416900635,-1.0069793462753296
2.076277099609375,0.42092397809028625,0.40904513001441956,-0.6339637637138367
2.0862861328125,0.488522469997406,0.25266557931900024,-0.3255145847797394
2.096265869140625,0.5352444648742676,0.08446378260850906,-0.20296576619148254
2.10627490234375,0.533058226108551,-0.06712742894887924,-0.25625574588775635
2.116284912109375,0.47419172525405884,-0.19969531893730164,-0.41267409920692444
2.126263916015625,0.39463698863983154,-0.3034462034702301,-0.5894184708595276
2.13627392578125,0.33887091279029846,-0.2664908766746521,-0.667617678642273
2.14628369140625,0.3554360568523407,-0.09655928611755371,-0.5889754891395569
2.156262939453125,0.4023183584213257,0.07273280620574951,-0.37524986267089844
2.166272705078125,0.44620829820632935,0.17801275849342346,-0.1783728152513504
2.176282958984375,0.5151247382164001,0.26702919602394104,-0.09869370609521866
2.18626171875,0.5660601258277893,0.33734723925590515,-0.12214787304401398
2.19627197265625,0.5363538861274719,0.325136661529541,-0.19564180076122284
2.2062509765625,0.4542350769042969,0.254781574010849,-0.30777597427368164
2.2162607421875,0.36488229036331177,0.14999285340309143,-0.44050127267837524
2.22627099609375,0.29068422317504883,0.05417300760746002,-0.4939160645008087
2.236249755859375,0.2312382012605667,-0.03376457095146179,-0.42740389704704285
2.246260009765625,0.19012831151485443,-0.05621859058737755,-0.294017493724823
2.25626904296875,0.17408595979213715,-0.041559748351573944,-0.186048686504364
2.2662490234375,0.18830059468746185,-0.06255056709051132,-0.13452421128749847
2.276258056640625,0.2285526692867279,-0.09724649786949158,-0.11362850666046143
2.286267822265625,0.277974009513855,-0.10095887631177902,-0.07752546668052673
2.2962470703125,0.3131335973739624,-0.09020476788282394,-0.013551270589232445
2.3062568359375,0.3201560974121094,-0.05697004869580269,0.02746531181037426
2.31626708984375,0.34212106466293335,0.06405944377183914,0.04432418942451477
2.326245849609375,0.3642204701900482,0.19918292760849,0.009367039427161217
2.336256103515625,0.36662983894348145,0.3323918581008911,-0.08198470622301102
2.346235107421875,0.35859429836273193,0.5314162969589233,-0.165527805685997
2.356244873046875,0.3291034996509552,0.6373363137245178,-0.20273563265800476
2.366255126953125,0.30660778284072876,0.49167492985725403,-0.3904131054878235
2.37623388671875,0.28454509377479553,0.3803395926952362,-0.5298362970352173
2.386244140625,0.2918544113636017,0.2005307972431183,-0.5441563725471497
2.3962529296875,0.3253346085548401,0.08267660439014435,-0.42086055874824524
2.40623291015625,0.35087084770202637,-0.055455222725868225,-0.24372221529483795
2.416241943359375,0.40155667066574097,-0.09635258466005325,-0.09253695607185364
2.426251708984375,0.46795591711997986,-0.09387566149234772,-0.0710754543542862
