seconds_elapsed,z,y,x
0.024924072265625,0.2294527292251587,-0.05158410221338272,0.14778746664524078
0.03493310546875,0.22164247930049896,-0.06832126528024673,0.23474234342575073
0.044913330078125,0.25389817357063293,-0.18615606427192688,0.38764992356300354
0.054922119140625,0.31624835729599,-0.31856870651245117,0.5691520571708679
0.06490234375,0.363908588886261,-0.3891964852809906,0.6455819606781006
0.074911376953125,0.4166862964630127,-0.42068490386009216,0.631859540939331
0.08492138671875,0.47177669405937195,-0.4117043912410736,0.6237491369247437
0.094900390625,0.5548590421676636,-0.3558861315250397,0.6504838466644287
0.10491015625,0.6370545625686646,-0.3024674355983734,0.620733916759491
0.11492041015625,0.7122489213943481,-0.4272783398628235,0.7601748704910278
0.124899169921875,0.7638618350028992,-0.5813994407653809,1.0908441543579102
0.134909423828125,0.8270522952079773,-0.7676795721054077,1.3580795526504517
0.144919189453125,0.8894277215003967,-0.9297313690185547,1.57257878780365
0.1548984375,0.9176372289657593,-1.0085262060165405,1.7768211364746094
0.164908203125,0.8845956921577454,-0.7854617238044739,1.7449374198913574
0.17491796875,0.7137834429740906,-0.39367878437042236,1.5804505348205566
0.184897216796875,0.6408703923225403,0.04970484972000122,1.2977542877197266
0.194906982421875,0.4933573603630066,0.09018942713737488,1.1868035793304443
0.204916259765625,0.4709969460964203,-0.09623171389102936,1.2904621362686157
0.21489599609375,0.5401583909988403,-0.39010754227638245,1.4897289276123047
0.2249052734375,0.592397928237915,-0.5658307671546936,1.7009568214416504
0.234885009765625,0.6355589628219604,-0.36029064655303955,1.7176152467727661
0.24489404296875,0.6405137777328491,0.019461210817098618,1.659664273262024
0.254904296875,0.6663855910301208,0.4726369380950928,1.6445598602294922
0.264883056640625,0.5630176663398743,0.9807025194168091,1.5815125703811646
0.274893310546875,0.539356529712677,1.2231734991073608,1.6339237689971924
0.284903076171875,0.36417725682258606,1.2667125463485718,1.7483378648757935
0.29488232421875,0.23366932570934296,1.1441755294799805,1.9376424551010132
0.304892333984375,0.29748931527137756,1.080064058303833,2.307671308517456
0.314902099609375,0.4027145206928253,1.1358776092529297,2.501535415649414
0.32488134765625,0.3835459351539612,1.2226674556732178,2.608698844909668
0.33489111328125,0.3618427515029907,1.4248839616775513,2.6046953201293945
0.344900390625,0.32719823718070984,1.6344916820526123,2.454497814178467
0.354880126953125,0.35301703214645386,1.7387149333953857,2.306089162826538
0.36488916015625,0.38234588503837585,1.773414134979248,2.149625539779663
0.3748994140625,0.45259952545166016,1.8354806900024414,2.14251971244812
0.384878173828125,0.4817132353782654,1.8102164268493652,2.0809061527252197
0.394888427734375,0.4908662438392639,1.7841707468032837,2.104168176651001
0.404866943359375,0.5028344988822937,1.8025137186050415,2.1227245330810547
0.414877197265625,0.5112732648849487,1.8767905235290527,2.1045923233032227
0.42488720703125,0.5676478147506714,1.9657444953918457,2.050229549407959
0.4348662109375,0.6972628235816956,2.0864925384521484,1.9316341876983643
0.444876220703125,0.7616633772850037,2.087867259979248,1.7721763849258423
0.454885986328125,0.8395824432373047,2.197902202606201,1.5631999969482422
0.464865234375,0.8679091334342957,2.2311413288116455,1.370990514755249
0.474875,0.9359853863716125,2.273287534713745,1.2255175113677979
0.48488525390625,0.9791565537452698,2.284919261932373,1.2812732458114624
0.494864013671875,0.9531984925270081,2.375288248062134,1.3396952152252197
0.504874267578125,0.9234347343444824,2.451246500015259,1.2991423606872559
0.51488330078125,0.8711667060852051,2.401484251022339,1.218658685684204
0.52486328125,0.8436402678489685,2.4664478302001953,1.0694713592529297
0.534851318359375,0.7996842861175537,2.71152400970459,0.8593617081642151
0.544861328125,0.7848597764968872,3.0341293811798096,0.6341432929039001
0.55484033203125,0.8059722781181335,3.153705358505249,0.5378956198692322
0.564850341796875,0.9315762519836426,3.0892486572265625,0.3984570801258087
0.574829345703125,1.0260194540023804,2.8755388259887695,0.24422331154346466
0.58483935546875,1.0872724056243896,2.6595311164855957,0.2766750156879425
0.59484912109375,1.1158568859100342,2.5365610122680664,0.45487216114997864
0.604828369140625,1.1229465007781982,2.441009283065796,0.54311603307724
0.614838134765625,1.1294193267822266,2.4222285747528076,0.4825538694858551
0.624848388671875,1.1087092161178589,2.4940922260284424,0.32917943596839905
0.6348271484375,1.0828925371170044,2.564578056335449,0.16116030514240265
0.64483740234375,1.079694151878357,2.6238231658935547,-0.003771027084439993
0.65484619140625,1.0954482555389404,2.694444417953491,-0.1735142469406128
0.664826416015625,1.1213148832321167,2.701103925704956,-0.33087408542633057
0.67483642578125,1.1485954523086548,2.6612720489501953,-0.3232015073299408
0.68484521484375,1.141179084777832,2.5826523303985596,-0.15977689623832703
0.6948251953125,1.1781866550445557,2.493553400039673,-0.14731676876544952
0.704834228515625,1.2658746242523193,2.5029711723327637,-0.35376301407814026
0.714843994140625,1.3281859159469604,2.504446029663086,-0.5929835438728333
0.7248232421875,1.3888278007507324,2.5196774005889893,-0.7784929275512695
0.7348330078125,1.6290464401245117,2.338754892349243,-0.7337174415588379
0.744812255859375,1.5851714611053467,2.252549171447754,-0.6855848431587219
0.754822021484375,1.6217923164367676,2.272080183029175,-0.7901443243026733
0.764832275390625,1.5624910593032837,2.1532442569732666,-0.7003083229064941
0.774811279296875,1.6615936756134033,1.8701227903366089,-0.3769529461860657
0.7848212890625,1.6954630613327026,1.602866530418396,-0.03334980458021164
0.794831298828125,1.695205569267273,1.5945944786071777,0.14446599781513214
0.80481005859375,1.67681086063385,1.795832872390747,-0.0358930379152298
0.8148203125,1.6542165279388428,1.9506957530975342,-0.40656402707099915
0.824829345703125,1.7128287553787231,1.9620158672332764,-0.8015203475952148
0.834809326171875,1.8488645553588867,1.837058663368225,-1.017274260520935
0.844818359375,2.0005910396575928,1.7283337116241455,-1.0082683563232422
0.854828125,2.120913505554199,1.5309460163116455,-0.8366807103157043
0.864807373046875,2.169189691543579,1.1990433931350708,-0.5988508462905884
0.874817138671875,2.168583393096924,0.9713828563690186,-0.4193199872970581
0.884827392578125,2.1750991344451904,0.9503411650657654,-0.37225043773651123
0.89480615234375,2.1789064407348633,1.014633297920227,-0.47537869215011597
0.90481640625,2.235701322555542,1.341448187828064,-0.7211031317710876
0.91479541015625,2.2501633167266846,1.7259798049926758,-1.0775471925735474
0.924805419921875,2.1791889667510986,1.8782355785369873,-1.3049732446670532
0.934815185546875,2.13244891166687,1.8340216875076294,-1.4599705934524536
0.9447939453125,2.1952855587005615,1.4364278316497803,-1.5243451595306396
0.95480419921875,2.392408609390259,0.7093905210494995,-1.2360504865646362
0.96481396484375,2.5913944244384766,0.2717563211917877,-1.0637140274047852
0.974793212890625,2.771436929702759,0.0525217205286026,-1.1281633377075195
0.98480322265625,2.993900775909424,-0.23685403168201447,-1.0964468717575073
0.99481201171875,3.2331554889678955,-0.19943928718566895,-1.173742413520813
1.004792236328125,3.348118543624878,0.05395179241895676,-1.3938698768615723
1.014801025390625,3.410041093826294,0.32346847653388977,-1.529612421989441
1.024811279296875,3.4824059009552,0.5922672152519226,-1.6316100358963013
1.034790283203125,3.5379600524902344,0.6945776343345642,-1.597406268119812
1.04480029296875,3.566140651702881,0.7607131600379944,-1.5570132732391357
1.054810302734375,3.5926120281219482,0.8205419182777405,-1.5942455530166626
1.0647890625,3.5265958309173584,0.8437132239341736,-1.697504997253418
1.07479931640625,3.4751219749450684,0.8695874214172363,-1.8632614612579346
1.084778076171875,3.5174899101257324,0.8112579584121704,-2.0024123191833496
1.094788330078125,3.6422677040100098,0.7063485980033875,-2.0444183349609375
1.104798095703125,3.870431423187256,0.5624637603759766,-2.0394320487976074
1.11477734375,3.9568538665771484,0.4463810622692108,-2.033463478088379
1.124787353515625,3.880441427230835,0.5099570751190186,-2.08365535736084
1.134796142578125,3.742481231689453,0.6373072862625122,-2.2470030784606934
1.1447763671875,3.5135087966918945,0.7203875184059143,-2.4636409282684326
1.15478515625,3.197134494781494,0.7659938931465149,-2.6454100608825684
1.16479541015625,2.7899510860443115,0.8119639158248901,-2.783270835876465
1.174774169921875,2.242926597595215,0.7134677171707153,-2.891773223876953
1.1847841796875,1.5504150390625,0.4290024936199188,-2.8918752670288086
1.194794189453125,0.888047993183136,0.17508924007415771,-2.989589214324951
1.20477294921875,0.3791203200817108,-0.05609739571809769,-3.1334338188171387
1.214783203125,-0.04994983971118927,-0.2114715427160263,-3.2703752517700195
1.22479296875,-0.40120694041252136,-0.2116631269454956,-3.476557970046997
1.234772216796875,-0.7244161367416382,-0.12648218870162964,-3.653657913208008
1.2447822265625,-1.1482689380645752,-0.021981628611683846,-3.814126968383789
1.25476123046875,-1.6124006509780884,0.21166442334651947,-3.878661870956421
1.264771240234375,-2.2821974754333496,0.23504874110221863,-3.8851993083953857
1.274781005859375,-3.0555572509765625,-0.13511253893375397,-3.7875113487243652
1.28476025390625,-3.7975683212280273,-0.594891369342804,-3.638331651687622
1.29477001953125,-4.341800212860107,-0.9430040717124939,-3.638287305831909
1.304779296875,-4.826391220092773,-1.1363602876663208,-3.69599986076355
1.314759033203125,-5.366790294647217,-1.234093427658081,-3.771507740020752
1.324768310546875,-5.912962436676025,-1.28449547290802,-3.8631789684295654
1.3347783203125,-6.445981025695801,-1.3773071765899658,-3.7778360843658447
1.344757080078125,-7.018064498901367,-1.458742618560791,-3.5089900493621826
1.354767333984375,-7.674961090087891,-1.5009995698928833,-3.1917824745178223
1.364777099609375,-8.364810943603516,-1.6452457904815674,-2.8308138847351074
1.37475634765625,-9.150277137756348,-1.6048521995544434,-2.534162759780884
1.384766357421875,-10.089995384216309,-1.7944668531417847,-2.2172131538391113
1.3947763671875,-11.130751609802246,-1.9694392681121826,-1.7284793853759766
1.40475537109375,-12.231301307678223,-1.9999070167541504,-1.3697205781936646
1.41476513671875,-13.196584701538086,-2.0564045906066895,-0.9923328161239624
1.424744384765625,-13.724210739135742,-1.8835088014602661,-0.622573733329773
1.434754150390625,-13.98719596862793,-2.115971088409424,-0.18267491459846497
1.44476318359375,-13.834122657775879,-2.7431132793426514,0.5689579844474792
1.4547431640625,-13.296372413635254,-3.68719482421875,1.5052919387817383
1.464751953125,-13.145617485046387,-4.638646602630615,2.784841299057007
1.47476220703125,-13.175346374511719,-5.339598178863525,3.4546260833740234
1.484742431640625,-13.118170738220215,-5.61977481842041,4.411906719207764
1.494751220703125,-12.76557731628418,-5.359278202056885,5.06107234954834
1.50476123046875,-11.803437232971191,-5.11965799331665,5.485070705413818
1.514740234375,-10.740095138549805,-5.237289905548096,5.998467445373535
1.524750244140625,-9.751424789428711,-5.611917972564697,6.4290595054626465
1.534775390625,-9.489225387573242,-5.894741535186768,6.780468463897705
1.54475439453125,-9.174152374267578,-5.823744297027588,6.759993553161621
1.554764404296875,-8.720267295837402,-5.738056659698486,6.817249298095703
1.5647744140625,-8.207876205444336,-5.473950386047363,6.503914833068848
1.57475341796875,-7.699737548828125,-4.860212802886963,6.0894389152526855
1.584763671875,-7.202236652374268,-4.467096328735352,5.755130767822266
1.594742431640625,-6.703214168548584,-4.2711944580078125,5.538840293884277
1.604752685546875,-6.119433879852295,-4.228525638580322,5.445701599121094
1.614761474609375,-5.626324653625488,-4.178737163543701,5.32931661605835
1.624741455078125,-5.407093524932861,-4.062061309814453,5.237475872039795
1.634750732421875,-5.38165283203125,-3.781567335128784,5.077017307281494
1.644760498046875,-5.291457176208496,-3.2935543060302734,4.787291049957275
1.654739501953125,-5.084768772125244,-2.8039913177490234,4.419239521026611
1.664749267578125,-4.770460605621338,-2.3478522300720215,4.077070713043213
1.67475927734375,-4.301457405090332,-1.9009308815002441,3.661984443664551
1.68473828125,-3.85026478767395,-1.6529450416564941,3.3895742893218994
1.694748291015625,-3.3742544651031494,-1.4366804361343384,3.248006820678711
1.704758544921875,-2.81532883644104,-1.2433828115463257,3.147315502166748
1.7147373046875,-2.2306151390075684,-1.0556004047393799,3.111607074737549
1.72474755859375,-1.6050596237182617,-0.915168821811676,3.0268912315368652
1.73475732421875,-1.0424689054489136,-0.7684417366981506,2.8184573650360107
1.744736328125,-0.5227929949760437,-0.5674017667770386,2.4971282482147217
1.754746337890625,-0.11624176055192947,-0.3909790515899658,2.144071340560913
1.764725341796875,0.14022916555404663,-0.2973354458808899,1.8660306930541992
1.7747353515625,0.37423446774482727,-0.05298749357461929,1.610349416732788
1.784744384765625,0.5590860843658447,0.20270301401615143,1.334611415863037
1.794724365234375,0.7850395441055298,0.36186152696609497,1.1459616422653198
1.8047333984375,1.0332227945327759,0.423593670129776,0.9980053901672363
1.814743408203125,1.296657919883728,0.4881840944290161,0.7938149571418762
1.824722412109375,1.5745446681976318,0.5793048739433289,0.5687403678894043
1.834732421875,1.8736873865127563,0.621048092842102,0.33709755539894104
1.84474267578125,2.114546298980713,0.5951563119888306,0.10120779275894165
1.854721435546875,2.203535795211792,0.5233481526374817,-0.16246220469474792
1.864731689453125,2.210667848587036,0.4966285824775696,-0.454493910074234
1.874741455078125,2.1350762844085693,0.49730926752090454,-0.7187950611114502
1.884720458984375,2.01877498626709,0.5126199126243591,-0.9588768482208252
1.89473046875,1.8653761148452759,0.5213428139686584,-1.194870948791504
1.9047392578125,1.7246789932250977,0.5404306054115295,-1.316627025604248
1.914719482421875,1.6991832256317139,0.5650169253349304,-1.3467657566070557
1.924728271484375,1.7506998777389526,0.5845569968223572,-1.3257302045822144
1.93470849609375,1.8624850511550903,0.57889324426651,-1.2567063570022583
1.94471728515625,2.002183198928833,0.6029946208000183,-1.2298431396484375
1.954727294921875,2.1163594722747803,0.6473820805549622,-1.260432243347168
1.964706298828125,2.16501522064209,0.7087349891662598,-1.3392744064331055
1.97471630859375,2.1262636184692383,0.7510912418365479,-1.4024579524993896
1.9847265625,2.0106658935546875,0.841563880443573,-1.5357017517089844
1.994705322265625,1.868646502494812,0.9378030896186829,-1.5923417806625366
2.004715576171875,1.7401459217071533,1.1233137845993042,-1.6148509979248047
2.014725341796875,1.6170766353607178,1.242366909980774,-1.6506340503692627
2.024704345703125,1.5787203311920166,1.37579345703125,-1.6331794261932373
2.03471435546875,1.6416085958480835,1.480020523071289,-1.6533308029174805
2.044724365234375,1.796433925628662,1.4471625089645386,-1.7089869976043701
2.054703369140625,1.999609112739563,1.489581823348999,-1.779223918914795
2.06471337890625,2.185713768005371,1.5555245876312256,-1.9479671716690063
2.074722412109375,2.309053421020508,1.5453436374664307,-2.1154439449310303
2.084702392578125,2.382417917251587,1.4861271381378174,-2.2190122604370117
2.09471142578125,2.4032998085021973,1.4975329637527466,-2.33076810836792
2.10469140625,2.378300905227661,1.4676504135131836,-2.5101351737976074
2.114700439453125,2.358767509460449,1.3816041946411133,-2.599249839782715
2.124710693359375,2.379324436187744,1.325890302658081,-2.5614242553710938
2.134689453125,2.4235358238220215,1.3537492752075195,-2.528329610824585
2.144699462890625,2.4899213314056396,1.5331896543502808,-2.5235466957092285
2.15470947265625,2.603800058364868,1.7793387174606323,-2.5298798084259033
2.1646884765625,2.6344377994537354,2.011702537536621,-2.615154266357422
2.174698486328125,2.5767123699188232,2.26971435546875,-2.8026206493377686
2.18470849609375,2.643108367919922,2.377333641052246,-2.9990153312683105
2.1946875,2.6993520259857178,2.383629560470581,-3.0976531505584717
2.204697509765625,2.736593246459961,2.2297041416168213,-3.1491239070892334
2.214706298828125,2.7501440048217773,2.0571916103363037,-3.1714086532592773
2.224686279296875,2.759279251098633,1.910509467124939,-3.207824468612671
2.2346953125,2.7567503452301025,1.827070951461792,-3.279250144958496
2.24470556640625,2.7190029621124268,1.8449132442474365,-3.4664385318756104
2.254684326171875,2.6821892261505127,2.0181353092193604,-3.79022479057312
2.264694580078125,2.6683578491210938,2.2635600566864014,-4.108809471130371
2.27467431640625,2.6381070613861084,2.5050721168518066,-4.310869216918945
2.284683349609375,2.5801165103912354,2.6799087524414062,-4.386674404144287
2.294693359375,2.5307517051696777,2.6855926513671875,-4.30244779586792
2.30467236328125,2.47605299949646,2.541489601135254,-4.038690090179443
2.314682373046875,2.435891628265381,2.2319841384887695,-3.6268742084503174
2.3246923828125,2.4274895191192627,2.0688233375549316,-3.231086015701294
2.334671630859375,2.4022433757781982,2.026353597640991,-3.053450345993042
2.344681396484375,2.3595142364501953,2.1021485328674316,-3.056816339492798
2.35469140625,2.2623515129089355,2.3107917308807373,-3.150550127029419
2.36467041015625,2.099247455596924,2.5124621391296387,-3.2523422241210938
2.374680419921875,1.8653812408447266,2.624398946762085,-3.290148973464966
2.384689697265625,1.6706674098968506,2.700579881668091,-3.1794424057006836
2.39466943359375,1.5413099527359009,2.7861077785491943,-2.8505356311798096
2.4046787109375,1.3688950538635254,2.560981273651123,-2.4867489337921143
2.4146884765625,1.2214640378952026,2.339951515197754,-2.15478777885437
2.42466748046875,1.098065972328186,2.0350606441497803,-1.829351544380188
2.434677490234375,1.0247454643249512,1.5935598611831665,-1.4724326133728027
2.444656494140625,0.9689942598342896,1.2085027694702148,-1.1556898355484009
2.45466650390625,0.9016109704971313,0.9793484210968018,-1.0093549489974976
2.46467626953125,0.8342188596725464,0.9221291542053223,-0.9849029779434204
2.474655517578125,0.7988483309745789,0.9907718896865845,-0.9690347909927368
2.484665283203125,0.7307204604148865,1.0485752820968628,-0.9418190717697144
2.49467529296875,0.649163544178009,1.0729453563690186,-0.8708080053329468
2.504654296875,0.5897960662841797,1.0772879123687744,-0.802370548248291
2.514664306640625,0.5422738194465637,1.0405102968215942,-0.7282318472862244
2.52467431640625,0.4789297580718994,0.9032453894615173,-0.5769768953323364
2.534640869140625,0.4198685586452484,0.7043956518173218,-0.3660467863082886
2.544650634765625,0.40834692120552063,0.5220539569854736,-0.15143881738185883
2.55465966796875,0.4210531413555145,0.34468746185302734,0.01237727701663971
2.5646396484375,0.41389188170433044,0.1756936013698578,0.1095915362238884
2.574648681640625,0.4061165153980255,0.15130889415740967,0.13730864226818085
2.584658935546875,0.39151015877723694,0.2145075798034668,0.10422499477863312
2.5946376953125,0.37484514713287354,0.3413536548614502,0.04693640395998955
2.60464794921875,0.35715246200561523,0.4470656216144562,-0.040602438151836395
2.614626708984375,0.3468574583530426,0.5338098406791687,-0.1128060594201088
2.624636962890625,0.3515121340751648,0.5659185647964478,-0.11532863229513168
2.634646728515625,0.3649624288082123,0.5647736191749573,-0.12943913042545319
2.6446259765625,0.35654181241989136,0.5407714247703552,-0.12629938125610352
2.6546357421875,0.33022230863571167,0.45340853929519653,-0.09900491684675217
2.6646455078125,0.3228794038295746,0.35620206594467163,-0.0413457527756691
2.674624755859375,0.3295309245586395,0.2509395480155945,0.01405278779566288
2.684634521484375,0.3159528076648712,0.18709008395671844,-0.01370436605066061
2.6946435546875,0.29854264855384827,0.15859532356262207,-0.057341594249010086
2.70462353515625,0.3056197464466095,0.13724011182785034,-0.07474842667579651
2.714632568359375,0.30601629614830017,0.1406915783882141,-0.06438499689102173
2.724642822265625,0.30705252289772034,0.15098997950553894,-0.04063703119754791
2.73462158203125,0.3054053485393524,0.15380653738975525,-0.024513721466064453
2.7446318359375,0.2737070918083191,0.14626409113407135,-0.03824885934591293
2.7546416015625,0.24390552937984467,0.11077693104743958,-0.0302114374935627
2.764620849609375,0.22657153010368347,0.08815766870975494,0.018702076748013496
2.774630859375,0.20607663691043854,0.03305739909410477,0.004878140054643154
