seconds_elapsed,z,y,x
0.02141943359375,0.017474588006734848,-0.08791035413742065,0.006727288011461496
0.031398681640625,0.03179332986474037,-0.12507665157318115,0.05388367921113968
0.04140869140625,0.06586501747369766,-0.15862715244293213,0.04499564692378044
0.051418701171875,0.08865823596715927,-0.17102913558483124,-0.00870987493544817
0.0613974609375,0.08853758871555328,-0.16914309561252594,-0.08302458375692368
0.071407470703125,0.07321269065141678,-0.12223353981971741,-0.15099278092384338
0.08141748046875,0.048762474209070206,-0.018540432676672935,-0.17834210395812988
0.091396240234375,0.01800800859928131,0.05119451507925987,-0.13670916855335236
0.101406494140625,0.006184639409184456,0.04992072656750679,-0.06663075089454651
0.11138525390625,0.004271167796105146,0.0018156394362449646,-0.011517345905303955
0.1213955078125,0.012571176514029503,-0.0467713363468647,0.011905155144631863
0.131404541015625,0.020350806415081024,-0.07470128685235977,0.017070386558771133
0.141384521484375,0.018539590761065483,-0.08183936029672623,0.026536326855421066
0.1513935546875,0.006848049815744162,-0.08865640312433243,0.037066344171762466
0.16137353515625,-0.005507419817149639,-0.09038985520601273,0.042472828179597855
0.171382568359375,-0.02519245445728302,-0.0781688466668129,0.041416119784116745
0.181392578125,-0.03410365805029869,-0.05652587115764618,0.0364016517996788
0.19137158203125,-0.02662363462150097,-0.054593525826931,0.03186605125665665
0.201381591796875,-0.020901300013065338,-0.0771518349647522,0.017008809372782707
0.2113916015625,-0.006866153795272112,-0.0892912745475769,-0.0081153130158782
0.22137060546875,0.004312997218221426,-0.08051110059022903,-0.03417061269283295
0.23138037109375,0.0078110420145094395,-0.0742756649851799,-0.0319611020386219
0.241359619140625,-5.1408540457487106e-05,-0.0803798958659172,-0.015684127807617188
0.251369384765625,-0.009930930100381374,-0.0868569016456604,0.0012819808907806873
0.261379638671875,-0.020783310756087303,-0.0967838391661644,0.011375893838703632
0.271358642578125,-0.03787706792354584,-0.11224975436925888,0.023305611684918404
0.28136865234375,-0.0477595254778862,-0.11124494671821594,0.018917787820100784
0.29134765625,-0.04811052978038788,-0.09229549020528793,0.006860059220343828
0.301357666015625,-0.046105168759822845,-0.06241375952959061,-0.008478417061269283
0.311366455078125,-0.04242735356092453,-0.02921389415860176,-0.015184048563241959
0.321332275390625,-0.039139147847890854,-0.025051642209291458,-0.0035393766593188047
0.33134130859375,-0.041278205811977386,-0.027704590931534767,0.011585988104343414
0.341351318359375,-0.04003584012389183,-0.028609799221158028,0.013090141117572784
0.351330322265625,-0.04150591418147087,-0.041128963232040405,0.015410766936838627
0.36134033203125,-0.04029311239719391,-0.04813067987561226,0.02683839201927185
0.3713203125,-0.03772154450416565,-0.05591752007603645,0.05387529358267784
0.3813291015625,-0.045572541654109955,-0.05673005059361458,0.06783372163772583
0.39133935546875,-0.05304883047938347,-0.03957108408212662,0.054454293102025986
0.401318115234375,-0.05805877223610878,-0.02158116176724434,0.02872949279844761
0.411328369140625,-0.06386154890060425,-0.002787473611533642,0.0006728577427566051
0.42130712890625,-0.07187286764383316,0.0014757146127521992,-0.005625784397125244
0.431317138671875,-0.08152442425489426,-0.0030390839092433453,0.008070232346653938
0.4413271484375,-0.07786737382411957,0.012537479400634766,0.018631264567375183
0.45130615234375,-0.06463359296321869,0.015598191879689693,0.03105340152978897
0.461316162109375,-0.04871481657028198,0.01620965451002121,0.042197395116090775
0.471326171875,-0.043914999812841415,0.014499856159090996,0.052699871361255646
0.481305419921875,-0.03346448764204979,0.007342078723013401,0.06360018253326416
0.491315185546875,-0.015102003701031208,0.008470174856483936,0.05599213391542435
0.50129443359375,-0.013776281848549843,-0.004648556932806969,0.03645598143339157
0.51130419921875,-0.014563249424099922,-0.012041072361171246,0.009844731539487839
0.521313232421875,-0.019921796396374702,-0.011192855425179005,-0.0026399013586342335
0.531293212890625,-0.033812034875154495,-0.024857517331838608,0.0036056803073734045
0.54130224609375,-0.0353071354329586,-0.013711122795939445,0.010451601818203926
0.5512822265625,-0.01411288883537054,0.0019592037424445152,0.014313922263681889
0.561291259765625,0.00038322946056723595,-0.0014158203266561031,0.0307267177850008
0.57130126953125,0.0014250380918383598,-0.002675906755030155,0.055303145200014114
0.5812802734375,-0.00018457649275660515,-0.002245273906737566,0.0683038979768753
0.591290283203125,-0.01092322077602148,0.015206832438707352,0.06144627928733826
0.60130029296875,-0.03140852227807045,0.037015724927186966,0.0483456589281559
0.611279296875,-0.042040664702653885,0.040372420102357864,0.05207725241780281
0.62128955078125,-0.03635028749704361,0.018159791827201843,0.06929858028888702
0.631268310546875,-0.020448831841349602,0.0014110393822193146,0.06723881512880325
0.641278564453125,-0.001842923928052187,-0.007203221321105957,0.0477074533700943
0.651288330078125,0.016026625409722328,-0.021593231707811356,0.03169986978173256
0.661267333984375,0.012953603640198708,-0.019065894186496735,0.019224826246500015
0.67127734375,-0.00907740369439125,-0.0038209594786167145,0.008954436518251896
0.681256103515625,-0.022294938564300537,0.010033869184553623,0.004497370216995478
0.69126611328125,-0.025641484186053276,0.008848837576806545,-0.015927737578749657
0.701276123046875,-0.039956241846084595,0.002507051918655634,-0.03495921939611435
0.71125537109375,-0.05358067899942398,0.00811151321977377,-0.030657900497317314
0.72126513671875,-0.053418226540088654,0.025247089564800262,-0.010513484477996826
0.731274169921875,-0.041745059192180634,0.05052778497338295,0.0045708101242780685
0.741254150390625,-0.029182394966483116,0.0635322704911232,0.010868120938539505
0.75126318359375,-0.027403943240642548,0.0546049103140831,0.007273328490555286
0.7612431640625,-0.02536396123468876,0.04069308936595917,0.011251025833189487
0.771252197265625,-0.017169678583741188,0.01856883428990841,0.012989033944904804
0.781262451171875,-0.004717003554105759,-0.0018418985418975353,0.001814676565118134
0.7912412109375,0.00819932110607624,0.0021153863053768873,-0.0035623039584606886
0.801251220703125,0.008571363985538483,-0.0014926642179489136,0.0064626336097717285
0.811230224609375,0.0003725597634911537,0.001552719622850418,0.024470308795571327
0.821240234375,-0.008305350318551064,0.0038792570121586323,0.04788561910390854
0.831250244140625,-0.016998710110783577,-0.014056127518415451,0.08125058561563492
0.841229248046875,-0.023747427389025688,-0.032977353781461716,0.10359610617160797
0.851239501953125,-0.021493593230843544,-0.048924364149570465,0.12141824513673782
0.861249267578125,-0.021308504045009613,-0.07677410542964935,0.13408876955509186
0.871228515625,0.012404736131429672,-0.07120630145072937,0.132565438747406
0.88123828125,0.04633074253797531,-0.0878092497587204,0.14722266793251038
0.891217529296875,0.05771440267562866,-0.16286936402320862,0.18737737834453583
0.901227294921875,0.08118297904729843,-0.24000650644302368,0.2382163256406784
0.9112373046875,0.09919608384370804,-0.4081951379776001,0.33022788166999817
0.92121630859375,0.06255524605512619,-0.6978256702423096,0.5206910371780396
0.931226318359375,-0.014405334368348122,-1.0847892761230469,0.9086733460426331
0.941235107421875,-0.0049311392940580845,-1.3912898302078247,1.3475737571716309
0.95121533203125,0.1116495430469513,-1.7146453857421875,1.6605933904647827
0.96122412109375,0.27289968729019165,-1.9292333126068115,1.8610199689865112
0.971204345703125,0.3615150451660156,-2.252429485321045,1.8919802904129028
0.981213134765625,0.5434738993644714,-2.5590929985046387,1.892289400100708
0.991223388671875,0.6687761545181274,-2.949960231781006,1.9992287158966064
1.0012021484375,0.6487606167793274,-3.525991201400757,2.344388484954834
1.01121240234375,0.549698531627655,-4.2798357009887695,2.733203411102295
1.021191162109375,0.4383810758590698,-4.957457065582275,3.0644631385803223
1.031201171875,0.36713430285453796,-5.456170082092285,3.3743419647216797
1.041211181640625,0.28563278913497925,-5.754170894622803,3.7211830615997314
1.051190185546875,0.12902666628360748,-5.805418014526367,4.102385520935059
1.0612001953125,-0.05377669632434845,-5.817533016204834,4.826902389526367
1.071210205078125,-0.27395033836364746,-5.874197483062744,5.733431816101074
1.081189453125,-0.43389368057250977,-6.034959316253662,6.489381790161133
1.09119921875,-0.4587838351726532,-6.497303009033203,6.9200921058654785
1.101178466796875,-0.4034777283668518,-6.975967884063721,7.155411243438721
1.111188232421875,-0.22555111348628998,-7.434570789337158,7.146914005279541
1.121197265625,0.1902327835559845,-7.517346382141113,6.72161340713501
1.13117724609375,0.6442103981971741,-7.8434882164001465,5.741752624511719
1.141186279296875,0.9119147658348083,-8.066923141479492,4.919317722320557
1.151166259765625,1.0462948083877563,-7.9590229988098145,4.5941267013549805
1.16117529296875,1.0568078756332397,-7.594846725463867,4.426665306091309
1.171185302734375,1.026305079460144,-7.13530158996582,4.160069942474365
1.181164306640625,0.9951079487800598,-6.953607082366943,3.8169384002685547
1.19117431640625,0.9325194358825684,-7.00762939453125,3.503652811050415
1.201184326171875,0.9046508073806763,-7.07022762298584,3.218047857284546
1.211163330078125,1.0776307582855225,-7.490756511688232,3.11372971534729
1.221173583984375,1.245780348777771,-7.7457594871521,3.369730234146118
1.231152099609375,1.451621413230896,-7.789306163787842,3.701618194580078
1.241162353515625,1.7087687253952026,-7.430298805236816,3.849602222442627
1.251172119140625,2.0245375633239746,-6.6876678466796875,3.7823574542999268
1.261151123046875,2.4170961380004883,-5.6907219886779785,3.5757646560668945
1.2711611328125,2.6844253540039062,-4.810866832733154,3.2918269634246826
1.28114013671875,2.8159875869750977,-4.376012802124023,3.010303258895874
1.291150146484375,2.9412055015563965,-4.1978325843811035,2.7462263107299805
1.30116015625,3.130000352859497,-4.058080673217773,2.5090763568878174
1.311139404296875,3.271061897277832,-3.974835157394409,2.2973875999450684
1.321166748046875,3.39457368850708,-3.8158202171325684,2.109501838684082
1.33117578125,3.4984633922576904,-3.407163143157959,1.9633173942565918
1.34115576171875,3.593733310699463,-2.908433675765991,1.8381943702697754
1.35116455078125,3.6951301097869873,-2.5833652019500732,1.7976747751235962
1.361144775390625,3.8631393909454346,-2.4275269508361816,1.8326231241226196
1.371153564453125,4.149592399597168,-2.2096426486968994,1.9421107769012451
1.381163818359375,4.4011077880859375,-2.0814666748046875,2.155198097229004
1.391142578125,4.634647846221924,-2.0567076206207275,2.2807016372680664
1.40115283203125,4.881718158721924,-1.9739048480987549,2.252427339553833
1.411131591796875,5.084716796875,-1.8592238426208496,2.1461338996887207
1.421141845703125,5.2351837158203125,-1.7318334579467773,1.975401520729065
1.431151611328125,5.381454944610596,-1.503345251083374,1.6517138481140137
1.441130859375,5.452157497406006,-1.237558126449585,1.2350839376449585
1.451140869140625,5.436054229736328,-0.9951332807540894,0.8754031658172607
1.461150634765625,5.4330573081970215,-0.8292439579963684,0.5711575746536255
1.4711298828125,5.50669002532959,-0.6480456590652466,0.3285347819328308
1.4811396484375,5.60270881652832,-0.3695160150527954,0.17661048471927643
1.491118896484375,5.679333209991455,-0.14146359264850616,0.12556615471839905
1.501128662109375,5.673246383666992,-0.10488720238208771,0.13314764201641083
1.511138916015625,5.614230155944824,-0.26133283972740173,0.09630133211612701
1.52111767578125,5.545298099517822,-0.5528645515441895,0.003861412638798356
1.5311279296875,5.559554576873779,-0.7201374173164368,-0.07619480043649673
1.541106689453125,5.664454460144043,-0.6799756288528442,-0.1162751093506813
1.55111669921875,5.775905609130859,-0.5749102830886841,-0.17538151144981384
1.5611259765625,5.899685382843018,-0.4264476001262665,-0.2677042484283447
1.571105712890625,6.004323482513428,-0.18181850016117096,-0.3503667116165161
1.581114990234375,5.971721649169922,0.10564496368169785,-0.44148144125938416
1.591125,5.812967777252197,0.18887361884117126,-0.5738100409507751
1.601103759765625,5.706885814666748,0.17803935706615448,-0.7138118743896484
1.611114013671875,5.732315540313721,0.28736257553100586,-0.909764289855957
1.621092529296875,5.736936569213867,0.5154285430908203,-1.2103941440582275
1.631102783203125,5.6840314865112305,0.8455833792686462,-1.5925618410110474
1.641112548828125,5.672184944152832,1.2846912145614624,-2.0892086029052734
1.651091796875,5.6654133796691895,1.6765308380126953,-2.6686336994171143
1.6611015625,5.547056198120117,2.1062724590301514,-3.1499905586242676
1.671080810546875,5.260992050170898,2.511270523071289,-3.5956203937530518
1.6810908203125,4.975556373596191,2.5675549507141113,-4.040822505950928
1.6911005859375,4.768576145172119,2.4399404525756836,-4.18860387802124
1.701079833984375,4.569601535797119,2.2769901752471924,-4.096895217895508
1.711089599609375,4.410573482513428,1.9658856391906738,-4.002817630767822
1.7210986328125,4.288057804107666,1.6737829446792603,-3.745443105697632
1.73107861328125,4.225499153137207,1.5036495923995972,-3.456937551498413
1.741087646484375,4.11481237411499,1.7137706279754639,-3.4437618255615234
1.751067626953125,3.9303483963012695,2.238612174987793,-3.8548583984375
1.761077880859375,3.6406900882720947,2.917717456817627,-4.596522808074951
1.7710869140625,3.256429672241211,3.2105917930603027,-5.509976387023926
1.781066650390625,3.0358736515045166,2.3625762462615967,-5.949918746948242
1.791075927734375,2.9850988388061523,1.119545578956604,-5.168294429779053
1.801085693359375,2.880950689315796,0.2549498677253723,-3.770777940750122
1.81106494140625,2.6459062099456787,0.2827451229095459,-2.6339752674102783
1.821074951171875,2.2271134853363037,1.243177890777588,-2.181785821914673
1.8310537109375,1.7817258834838867,2.584756851196289,-2.435046672821045
1.84106396484375,1.5500776767730713,3.748166561126709,-3.17694091796875
1.85107373046875,1.4438155889511108,4.423399925231934,-4.0959248542785645
1.861052978515625,1.3677622079849243,4.7586822509765625,-5.149364471435547
1.871062744140625,1.338866949081421,4.840809345245361,-6.266051769256592
1.8810419921875,1.439415693283081,4.595280170440674,-6.846540451049805
1.8910517578125,1.6124627590179443,4.559169292449951,-6.792484283447266
1.901061767578125,1.8285492658615112,4.964424133300781,-6.733140468597412
1.911040771484375,2.039858818054199,5.449467658996582,-6.669247150421143
1.92105078125,2.2835824489593506,5.958801746368408,-6.623067855834961
1.931059814453125,2.540994644165039,6.153141498565674,-6.6549601554870605
1.94103955078125,2.9370276927948,5.752262115478516,-6.558799743652344
1.951048583984375,3.653510093688965,5.297849655151367,-6.29042911529541
1.961028564453125,4.59894323348999,4.850187301635742,-5.845887184143066
1.97103759765625,5.763148784637451,4.007748126983643,-4.882175445556641
1.9810478515625,7.103829860687256,3.2219431400299072,-3.2082254886627197
1.991026611328125,8.148595809936523,1.9672138690948486,-0.6119830012321472
2.001036865234375,9.21810531616211,0.9639917612075806,2.920609712600708
2.011015625,9.989863395690918,-0.19973036646842957,6.906411170959473
2.02102587890625,9.965518951416016,-1.1896291971206665,11.512985229492188
2.03103564453125,9.4097318649292,-2.205131769180298,16.015695571899414
2.041014892578125,8.321763038635254,-3.1529970169067383,19.997671127319336
2.05102490234375,7.093968868255615,-3.3493523597717285,22.952322006225586
2.06103466796875,5.2838897705078125,-3.23425555229187,24.708105087280273
2.071013916015625,3.078545093536377,-3.4124512672424316,25.35447883605957
2.081023681640625,0.9002192616462708,-3.7260751724243164,25.244035720825195
2.0910029296875,-1.6193639039993286,-4.074938774108887,24.98646354675293
2.1010126953125,-4.524566173553467,-4.320432662963867,24.758588790893555
2.11102294921875,-6.702908515930176,-4.500443458557129,23.881874084472656
2.121001708984375,-7.976044178009033,-4.961197853088379,21.500024795532227
2.13101171875,-8.930068969726562,-5.2082295417785645,17.642091751098633
2.14099072265625,-9.567232131958008,-4.225818157196045,12.529735565185547
2.151000732421875,-9.254566192626953,-1.383522391319275,7.029794692993164
2.161010009765625,-8.366127967834473,1.9455727338790894,2.493928909301758
2.17098974609375,-7.381918907165527,3.8766427040100098,-0.3917509615421295
2.18099853515625,-6.421721458435059,4.346036434173584,-1.6472276449203491
2.1910087890625,-5.596212387084961,3.9019575119018555,-1.8819677829742432
2.200987548828125,-5.001152515411377,3.1181838512420654,-1.4787853956222534
2.210997802734375,-4.41509485244751,2.3084230422973633,-0.9390496611595154
2.2209765625,-3.8667023181915283,1.4409195184707642,-0.7221953868865967
2.23098681640625,-3.523448944091797,0.9659793972969055,-0.898065447807312
2.24099658203125,-3.280242443084717,1.1322005987167358,-1.4133234024047852
2.250975830078125,-3.0370588302612305,1.734885811805725,-2.1212403774261475
2.260985595703125,-2.804546356201172,2.444722890853882,-2.816338539123535
2.27096484375,-2.5596659183502197,3.1699025630950928,-3.4136908054351807
2.280974853515625,-2.172966480255127,3.961395502090454,-3.781231641769409
2.290984619140625,-1.79867422580719,4.472771644592285,-3.878553628921509
2.3009638671875,-1.570693016052246,4.515377521514893,-3.841104745864868
2.3109736328125,-1.4533467292785645,4.153246879577637,-3.670750379562378
2.320976806640625,-1.4295556545257568,3.69014048576355,-3.4480478763580322
2.330955810546875,-1.3676775693893433,3.598931312561035,-3.371890068054199
2.3409658203125,-1.2329221963882446,3.827723979949951,-3.4220170974731445
2.35094482421875,-1.1375371217727661,4.099094867706299,-3.4822497367858887
2.360954833984375,-0.9817900657653809,4.356433391571045,-3.585127115249634
2.3709638671875,-0.6931186318397522,4.46244478225708,-3.6337172985076904
2.38094384765625,-0.3699120581150055,4.493752479553223,-3.536606788635254
2.390952880859375,-0.05298496410250664,4.7341179847717285,-3.4278085231781006
2.400962890625,0.23248353600502014,5.1361613273620605,-3.298173189163208
2.41094189453125,0.37027016282081604,5.430878639221191,-3.044372320175171
2.4209521484375,0.3770287334918976,5.386719226837158,-2.7710156440734863
2.430930908203125,0.2556391656398773,4.9302544593811035,-2.4469010829925537
2.440941162109375,0.08469698578119278,4.129693984985352,-2.340209484100342
2.450950927734375,0.005580614320933819,3.591291666030884,-2.376359224319458
2.460929931640625,0.07019103318452835,3.3653993606567383,-2.4975500106811523
2.47093994140625,0.26862263679504395,3.3986806869506836,-2.561405658721924
2.4809189453125,0.5607783198356628,3.4827845096588135,-2.4632985591888428
2.490928955078125,0.9181137681007385,3.579685926437378,-2.256406307220459
2.50093896484375,1.2670345306396484,3.6146018505096436,-1.986404538154602
2.51091796875,1.4701719284057617,3.393857002258301,-1.7182139158248901
2.520927978515625,1.4613184928894043,2.933565378189087,-1.380344033241272
2.530936767578125,1.2990872859954834,2.2700483798980713,-0.9922367334365845
2.540916748046875,1.0546575784683228,1.5885525941848755,-0.6310724020004272
2.55092578125,0.8273178339004517,1.0473905801773071,-0.3955038785934448
2.56090576171875,0.6741772890090942,0.7594012022018433,-0.35726088285446167
2.570914794921875,0.5927293300628662,0.7853115200996399,-0.5173201560974121
2.580925048828125,0.5770888924598694,1.050311803817749,-0.7986671328544617
2.59090380859375,0.6038455963134766,1.3242861032485962,-1.107513189315796
2.600913818359375,0.622259795665741,1.4619712829589844,-1.3322579860687256
2.610893798828125,0.5940294861793518,1.4181236028671265,-1.3756327629089355
2.62090283203125,0.5390738248825073,1.3072983026504517,-1.225787878036499
2.630912841796875,0.4502691328525543,1.101387858390808,-1.0031682252883911
2.640891845703125,0.3701636493206024,0.8195663094520569,-0.7798444628715515
2.650902099609375,0.2853909730911255,0.5417060852050781,-0.6085913777351379
2.660911865234375,0.1905217170715332,0.33892956376075745,-0.4865732789039612
2.67089111328125,0.12443749606609344,0.21725274622440338,-0.4083229899406433
2.68090087890625,0.08715483546257019,0.14444857835769653,-0.37523987889289856
2.6908798828125,0.0627240538597107,0.1311301440000534,-0.3857141435146332
2.700889892578125,0.08852183073759079,0.20459610223770142,-0.4043261706829071
2.71089990234375,0.12226836383342743,0.2719310224056244,-0.39229124784469604
2.72087890625,0.12831079959869385,0.27930426597595215,-0.3287031948566437
2.730888916015625,0.1628807783126831,0.2678602933883667,-0.227360799908638
2.740867919921875,0.19493591785430908,0.2458183616399765,-0.15926377475261688
2.7508779296875,0.19017496705055237,0.1441916972398758,-0.16416271030902863
2.760886962890625,0.20330221951007843,-0.04771142452955246,-0.241037517786026
2.770866943359375,0.24125252664089203,-0.210745170712471,-0.3192608058452606
2.780875732421875,0.2770853340625763,-0.2689930200576782,-0.3612695038318634
2.790885986328125,0.2631796896457672,-0.27788007259368896,-0.3558097779750824
2.80086474609375,0.23663993179798126,-0.27440837025642395,-0.31647196412086487
2.810875,0.21716956794261932,-0.26482486724853516,-0.2779078781604767
2.820853759765625,0.16984494030475616,-0.23523075878620148,-0.2501122057437897
2.83086376953125,0.09950578957796097,-0.2326965630054474,-0.2529052495956421
2.840873779296875,0.06887011229991913,-0.21814505755901337,-0.2679497003555298
2.850852783203125,0.07670487463474274,-0.21089346706867218,-0.30703675746917725
2.86086279296875,0.08742834627628326,-0.20624491572380066,-0.34925052523612976
2.870841796875,0.1058768481016159,-0.18008467555046082,-0.3927220404148102
2.88085205078125,0.11363037675619125,-0.12126848846673965,-0.39127248525619507
2.89086181640625,0.11966511607170105,-0.03160451352596283,-0.3337404131889343
2.900841064453125,0.12754540145397186,0.0987154096364975,-0.2204226553440094
2.910850830078125,0.09743116796016693,0.21080425381660461,0.010564148426055908
2.92086083984375,0.029827892780303955,0.3238738179206848,0.3316148817539215
2.93083984375,4.8425979912281036e-05,-0.23921813070774078,0.0710236132144928
2.940849853515625,0.050108395516872406,-0.4989953935146332,-0.4312994182109833
2.950828857421875,0.16961990296840668,-0.632301390171051,-0.837532103061676
2.9608388671875,0.18313303589820862,-0.6854090690612793,-0.9714862108230591
2.970847900390625,0.11932075768709183,-0.5666453838348389,-0.8692425489425659
2.980827880859375,0.11393051594495773,-0.3770288825035095,-0.552655816078186
