seconds_elapsed,z,y,x
0.0231591796875,0.03782927617430687,0.018944084644317627,-0.021823346614837646
0.03313916015625,0.02608952671289444,-0.05484822392463684,-0.005972091108560562
0.043148193359375,0.026712173596024513,-0.12438976019620895,-0.010728230699896812
0.053158447265625,0.030785487964749336,-0.16255521774291992,-0.02115669846534729
0.06313720703125,0.030912520363926888,-0.15416093170642853,-0.033713504672050476
0.0731474609375,0.01646646484732628,-0.102179616689682,-0.04496763274073601
0.083126220703125,0.0016470395494252443,-0.0055779763497412205,-0.04775170236825943
0.093136474609375,-0.010993395000696182,0.079384945333004,-0.05694872513413429
0.103146240234375,-0.0032009852584451437,0.11087309569120407,-0.07763376086950302
0.11312548828125,0.007080967538058758,0.10399723052978516,-0.09761756658554077
0.12313525390625,0.006288677453994751,0.09501145780086517,-0.08243701606988907
0.133145263671875,0.011624558828771114,0.078947052359581,-0.03492215648293495
0.143124267578125,0.021774664521217346,0.04970714449882507,-0.01584540121257305
0.15313427734375,0.03465985879302025,0.01042315922677517,-0.018307620659470558
0.163113525390625,0.03797842189669609,-0.018384786322712898,-0.029941638931632042
0.173123291015625,0.02813565358519554,-0.020847342908382416,-0.03039899654686451
0.183133544921875,0.020559225231409073,-0.006696371361613274,-0.02612941712141037
0.1931123046875,0.01380489207804203,0.00870933011174202,-0.01625070534646511
0.203122314453125,0.014609700068831444,0.029210876673460007,-0.005022553727030754
0.213131591796875,0.012589170597493649,0.023706037551164627,0.015979720279574394
0.223111328125,0.010118288919329643,0.011489851400256157,0.03947652503848076
0.23312060546875,0.011792362667620182,-0.001824498176574707,0.054914690554142
0.243100341796875,-0.0005844125989824533,-0.007114334963262081,0.04690736532211304
0.253109130859375,-0.023617547005414963,0.013812225311994553,0.046142205595970154
0.263119140625,-0.04611752927303314,0.06674254685640335,0.049935080111026764
0.27309814453125,-0.07265619933605194,0.10160155594348907,0.04422786459326744
0.2831083984375,-0.08129177242517471,0.10346843302249908,0.022482357919216156
0.2931181640625,-0.08908791840076447,0.07557740062475204,-0.01226783823221922
0.303097412109375,-0.1044389083981514,0.04161703214049339,-0.03120211325585842
0.313107177734375,-0.1120946854352951,0.03345969691872597,-0.01699841581285
0.32308642578125,-0.11449791491031647,0.02944178506731987,-0.0013747147750109434
0.33309619140625,-0.1057872623205185,0.014327687211334705,0.0005016611539758742
0.343106201171875,-0.08806632459163666,-0.007499847561120987,-0.0038166544400155544
0.353085205078125,-0.07123354822397232,-0.027077656239271164,-0.0019211621256545186
0.36309521484375,-0.06022350862622261,-0.05135343596339226,0.012445792555809021
0.3731044921875,-0.054345112293958664,-0.06603901088237762,0.021437807008624077
0.383084228515625,-0.058389123529195786,-0.06038777902722359,0.02572735957801342
0.39309326171875,-0.06470079720020294,-0.05669480562210083,0.03425103798508644
0.4030732421875,-0.06103948503732681,-0.08756962418556213,0.04686829820275307
0.413082275390625,-0.05646232143044472,-0.12759606540203094,0.06882414221763611
0.423092529296875,-0.05224946513772011,-0.17679210007190704,0.11055400967597961
0.433072265625,-0.04894343018531799,-0.24790820479393005,0.172002911567688
0.44308154296875,-0.05512861907482147,-0.3606789708137512,0.23728470504283905
0.45309130859375,-0.08846177905797958,-0.5795759558677673,0.3456372618675232
0.463070556640625,-0.15536276996135712,-0.9497223496437073,0.5329418778419495
0.473080322265625,-0.27668631076812744,-1.4507852792739868,0.8221003413200378
0.4830595703125,-0.4615355134010315,-2.0344715118408203,1.2019611597061157
0.4930693359375,-0.6624606251716614,-2.6871721744537354,1.6034066677093506
0.503079345703125,-0.8835563063621521,-3.284907341003418,1.9828388690948486
0.513058349609375,-1.0809369087219238,-3.7306716442108154,2.2826924324035645
0.523068359375,-1.2156367301940918,-3.99288010597229,2.4787850379943848
0.53307861328125,-1.2501875162124634,-4.094151020050049,2.594529628753662
0.543057373046875,-1.2452681064605713,-4.067925930023193,2.6406214237213135
0.553067626953125,-1.2166016101837158,-4.006643772125244,2.6454858779907227
0.563046142578125,-1.181857943534851,-4.006988525390625,2.6724092960357666
0.57305615234375,-1.1808286905288696,-4.155986309051514,2.730186939239502
0.5830654296875,-1.2347073554992676,-4.431731224060059,2.835054874420166
0.593045166015625,-1.3472537994384766,-4.800341606140137,2.9716365337371826
0.603054443359375,-1.4392050504684448,-5.151396751403809,3.087494134902954
0.613064208984375,-1.4311010837554932,-5.346067905426025,3.124107837677002
0.623043212890625,-1.3541227579116821,-5.3376688957214355,3.0625195503234863
0.63305322265625,-1.2642207145690918,-5.168465614318848,2.9613685607910156
0.6430322265625,-1.1682054996490479,-4.862256050109863,2.807187557220459
0.65304248046875,-1.0424246788024902,-4.498925685882568,2.5867626667022705
0.66305224609375,-0.9089007377624512,-4.196037292480469,2.3513970375061035
0.673031494140625,-0.8516055345535278,-4.046052932739258,2.1487112045288086
0.683041259765625,-0.8486840128898621,-4.060563564300537,1.9732047319412231
0.693051513671875,-0.8605721592903137,-4.200164318084717,1.8179349899291992
0.7030302734375,-0.8490113615989685,-4.385939121246338,1.6735460758209229
0.713040283203125,-0.8050169944763184,-4.571910381317139,1.5567795038223267
0.723019287109375,-0.7138116955757141,-4.717805862426758,1.4807497262954712
0.733029296875,-0.5705555081367493,-4.778522491455078,1.4244093894958496
0.74303955078125,-0.41984185576438904,-4.753971099853516,1.3528659343719482
0.753018310546875,-0.2805830240249634,-4.664693832397461,1.254684567451477
0.763028564453125,-0.1497288942337036,-4.5388875007629395,1.1513869762420654
0.773037353515625,-0.0030654026195406914,-4.420670509338379,1.051161289215088
0.783017578125,0.13466796278953552,-4.344470500946045,0.9590643048286438
0.793026611328125,0.21812529861927032,-4.346627235412598,0.9326895475387573
0.80300634765625,0.27817052602767944,-4.427209854125977,0.929938554763794
0.813015380859375,0.34565261006355286,-4.5490617752075195,0.9036175012588501
0.823025146484375,0.4312213063240051,-4.692412376403809,0.8494424223899841
0.83300439453125,0.5475500822067261,-4.819185256958008,0.7818491458892822
0.84301416015625,0.6566272974014282,-4.86329984664917,0.7349956631660461
0.853024169921875,0.7308208346366882,-4.8211445808410645,0.7005914449691772
0.863003173828125,0.8140970468521118,-4.7385663986206055,0.6626241207122803
0.87301318359375,0.9293477535247803,-4.653670310974121,0.6147592663764954
0.882992431640625,1.0546833276748657,-4.563943862915039,0.5584933161735535
0.893002197265625,1.1897460222244263,-4.472367763519287,0.4968706965446472
0.903012451171875,1.3396092653274536,-4.426301956176758,0.43419721722602844
0.9129912109375,1.4851237535476685,-4.449856281280518,0.365521639585495
0.92300146484375,1.6209702491760254,-4.47676420211792,0.27660295367240906
0.933010498046875,1.7627607583999634,-4.478188991546631,0.2122892588376999
0.942990234375,1.883668065071106,-4.468952178955078,0.19824348390102386
0.95299951171875,1.9360047578811646,-4.406501293182373,0.22628989815711975
0.962979248046875,1.934921145439148,-4.2709503173828125,0.2935347259044647
0.972988525390625,1.9242304563522339,-4.16657018661499,0.40108153223991394
0.982998291015625,1.8978885412216187,-4.134425163269043,0.5047118067741394
0.992978515625,1.9003485441207886,-4.107006072998047,0.5319287776947021
1.0029873046875,1.940049648284912,-4.061354637145996,0.48045626282691956
1.01299609375,1.988045334815979,-4.0435991287231445,0.43482592701911926
1.022975341796875,2.0550601482391357,-4.092048645019531,0.4584686756134033
1.0329853515625,2.1989476680755615,-4.180969715118408,0.5359068512916565
1.042964111328125,2.359177827835083,-4.24688720703125,0.6044179797172546
1.052974365234375,2.5163919925689697,-4.216737270355225,0.627835214138031
1.062984130859375,2.6584792137145996,-4.062883377075195,0.6156747341156006
1.07296337890625,2.8018577098846436,-3.812964916229248,0.5677436590194702
1.08297314453125,2.955021858215332,-3.5443227291107178,0.45752236247062683
1.0929833984375,3.08953595161438,-3.302222490310669,0.3023679852485657
1.102962158203125,3.202768564224243,-3.0945327281951904,0.11822716891765594
1.11297216796875,3.2953996658325195,-2.9006965160369873,-0.07622323930263519
1.122951171875,3.3776509761810303,-2.762404441833496,-0.2959502637386322
1.132961181640625,3.4221670627593994,-2.6444315910339355,-0.5176679491996765
1.142970458984375,3.4223556518554688,-2.517125129699707,-0.7246858477592468
1.1529501953125,3.41680908203125,-2.356571674346924,-0.9250768423080444
1.162958984375,3.4438555240631104,-2.1670265197753906,-1.1207606792449951
1.17296923828125,3.5039100646972656,-2.02070951461792,-1.274842381477356
1.182947998046875,3.614912986755371,-1.9568941593170166,-1.3804614543914795
1.192958251953125,3.7578964233398438,-1.91203773021698,-1.4746562242507935
1.20293701171875,3.848248243331909,-1.9071048498153687,-1.5225361585617065
1.212947265625,3.8875832557678223,-1.9922401905059814,-1.525640845298767
1.22295703125,3.9858241081237793,-2.1358981132507324,-1.4600402116775513
1.232936279296875,4.182806491851807,-2.331385850906372,-1.2683860063552856
1.242946044921875,4.294067859649658,-2.3806474208831787,-1.0016427040100098
1.2529560546875,4.215912342071533,-2.100069761276245,-0.8002703785896301
1.26293505859375,4.057363510131836,-1.5596078634262085,-0.8449435830116272
1.272945068359375,3.901299476623535,-0.8990018963813782,-1.2595584392547607
1.28292431640625,3.8074684143066406,-0.40038228034973145,-1.995338797569275
1.29293408203125,3.7613608837127686,-0.18366721272468567,-2.595376968383789
1.3029443359375,3.697094440460205,-0.12167175114154816,-2.833176612854004
1.312923095703125,3.6067183017730713,-0.031007790938019753,-2.932619571685791
1.322933349609375,3.528848648071289,0.243228018283844,-3.156975507736206
1.3329423828125,3.5232527256011963,0.6535474061965942,-3.5637576580047607
1.342922119140625,3.5730462074279785,1.2183072566986084,-4.047430038452148
1.352931396484375,3.604015350341797,1.8791054487228394,-4.648582935333252
1.3629111328125,3.5710747241973877,2.5360753536224365,-5.369847774505615
1.37292041015625,3.496504306793213,3.0415115356445312,-6.1512041091918945
1.38293017578125,3.3778998851776123,3.288349151611328,-6.848134994506836
1.392909423828125,3.1855013370513916,3.4172189235687256,-7.284916400909424
1.40291943359375,2.984157085418701,3.3887834548950195,-7.5092267990112305
1.41292919921875,2.8137264251708984,2.980367660522461,-7.400171279907227
1.422908447265625,2.617072343826294,2.4484059810638428,-6.696277618408203
1.432918212890625,2.399596691131592,1.8193368911743164,-5.545550346374512
1.4428974609375,2.1560373306274414,1.527799129486084,-4.201291084289551
1.4529072265625,1.9503424167633057,1.6148308515548706,-3.145603656768799
1.462917236328125,1.8899182081222534,2.0573251247406006,-2.639958620071411
1.47289599609375,1.8978842496871948,2.6211118698120117,-2.609585762023926
1.482906005859375,1.974976658821106,3.092738628387451,-2.910065174102783
1.492915283203125,2.2215802669525146,3.42218017578125,-3.306914806365967
1.50289501953125,2.6145269870758057,3.65110445022583,-3.6558454036712646
1.512904296875,3.062037229537964,3.5618200302124023,-3.8114426136016846
1.522884033203125,3.5262491703033447,3.1493170261383057,-3.293104648590088
1.532894287109375,3.960425853729248,2.9048397541046143,-2.1724793910980225
1.5429033203125,4.420752048492432,3.074547290802002,-0.8856158256530762
1.55288330078125,5.042797565460205,3.5371623039245605,0.37730416655540466
1.562892333984375,5.830517292022705,3.864922523498535,1.604111909866333
1.572902099609375,6.6356940269470215,3.799604654312134,3.0820906162261963
1.58288134765625,7.305801868438721,3.671342372894287,4.945044994354248
1.59289111328125,7.875526428222656,3.6783621311187744,7.219699859619141
1.602870361328125,8.27302074432373,3.616455316543579,9.827814102172852
1.612880126953125,8.243051528930664,3.4994137287139893,12.987252235412598
1.62289013671875,7.924737453460693,3.4514083862304688,16.530424118041992
1.632869384765625,7.3111724853515625,3.220266342163086,19.867427825927734
1.642879150390625,5.975019454956055,3.0553340911865234,22.80612564086914
1.652889404296875,4.063179969787598,3.117053270339966,24.838184356689453
1.6628681640625,1.9420549869537354,3.1884243488311768,25.575336456298828
1.67287841796875,-0.05492088198661804,3.554626941680908,25.0198917388916
1.682857177734375,-1.6714967489242554,4.128955841064453,23.74550437927246
1.692867431640625,-2.8566982746124268,4.777262210845947,22.304107666015625
1.702876220703125,-3.6952154636383057,5.222591876983643,20.695695877075195
1.712856201171875,-4.288120269775391,5.004761219024658,18.846607208251953
1.722865234375,-4.975261211395264,4.011241912841797,16.879093170166016
1.732875,-5.755978107452393,3.0869338512420654,14.839876174926758
1.742854248046875,-6.378052234649658,2.6687347888946533,12.775702476501465
1.7528642578125,-6.744475841522217,2.553982734680176,10.700634956359863
1.762843017578125,-6.909064769744873,2.622847318649292,8.603242874145508
1.772853271484375,-6.903540134429932,2.98081111907959,6.762413024902344
1.782863037109375,-6.748295783996582,3.2524895668029785,5.390933513641357
1.79284228515625,-6.4696550369262695,3.3564443588256836,4.290853023529053
1.80285205078125,-6.1062912940979,3.359827995300293,3.220452308654785
1.8128623046875,-5.735728740692139,3.368847131729126,2.1615045070648193
1.822841064453125,-5.414862632751465,3.3952436447143555,1.184995174407959
1.832851318359375,-5.106715202331543,3.4760031700134277,0.34368473291397095
1.842830078125,-4.754858493804932,3.625133991241455,-0.2786896228790283
1.852840087890625,-4.368955612182617,3.668870210647583,-0.6423933506011963
1.862850341796875,-3.984633684158325,3.547616720199585,-0.8685697913169861
1.8728291015625,-3.6188085079193115,3.359790563583374,-1.0467206239700317
1.88283935546875,-3.285600185394287,3.18483567237854,-1.2444815635681152
1.892848388671875,-3.0113344192504883,3.080000162124634,-1.521152138710022
1.902828369140625,-2.8301191329956055,3.0120840072631836,-1.8423131704330444
1.91283740234375,-2.7324018478393555,2.9396023750305176,-2.146862745285034
1.9228173828125,-2.7611167430877686,2.97322416305542,-2.485351085662842
1.932826416015625,-2.868642568588257,3.0744123458862305,-2.9032554626464844
1.942836181640625,-2.9332261085510254,3.158278465270996,-3.3936924934387207
1.9528154296875,-2.902796983718872,3.2373576164245605,-3.9094066619873047
1.9628251953125,-2.701357126235962,3.213900327682495,-4.319605350494385
1.97283544921875,-2.3820583820343018,2.9561071395874023,-4.615897178649902
1.982814208984375,-2.0218100547790527,2.6541707515716553,-4.893721580505371
1.99282421875,-1.687178373336792,2.4786932468414307,-5.181953430175781
2.002803466796875,-1.4017250537872314,2.36922287940979,-5.373593330383301
2.012822509765625,-1.1770081520080566,2.303459405899048,-5.445891380310059
2.02283251953125,-1.0211913585662842,2.2418789863586426,-5.389303684234619
2.0328115234375,-0.9530426859855652,2.1675779819488525,-5.2550048828125
2.042821533203125,-0.9722744226455688,2.1016552448272705,-5.188862323760986
2.052830810546875,-1.041892170906067,1.9449965953826904,-5.116674900054932
2.062810546875,-1.1346609592437744,1.646328091621399,-5.023453712463379
2.07281982421875,-1.1965751647949219,1.3478870391845703,-4.928334712982178
2.082799560546875,-1.2368173599243164,1.1095242500305176,-4.729355335235596
2.092809814453125,-1.243874192237854,0.9138290882110596,-4.323383331298828
2.10281884765625,-1.1768935918807983,0.6687825918197632,-3.7681381702423096
2.112798828125,-1.0116702318191528,0.36633530259132385,-3.2203445434570312
2.122807861328125,-0.8842337727546692,-0.01666322350502014,-2.838841438293457
2.132817626953125,-0.7684856057167053,-0.35676485300064087,-2.6785974502563477
2.142796875,-0.6566730737686157,-0.59120774269104,-2.5755045413970947
2.152806640625,-0.5928751230239868,-0.7393214106559753,-2.451833486557007
2.162785888671875,-0.5446538329124451,-0.7634181976318359,-2.261630058288574
2.1727958984375,-0.5104575157165527,-0.6875504851341248,-2.0481295585632324
2.1828056640625,-0.5092484354972839,-0.6908341646194458,-1.7971187829971313
2.19278466796875,-0.500190794467926,-0.7234588861465454,-1.5134607553482056
2.20279443359375,-0.5329892039299011,-0.7749657034873962,-1.2255038022994995
2.2128046875,-0.5173341035842896,-0.8894842267036438,-0.9943692684173584
2.222783447265625,-0.47467660903930664,-1.0216540098190308,-0.8768101334571838
2.232793701171875,-0.4789659082889557,-1.1962945461273193,-0.838265061378479
2.2427724609375,-0.48592767119407654,-1.3192678689956665,-0.8893373012542725
2.252782470703125,-0.46503037214279175,-1.3089386224746704,-0.942216157913208
2.262791748046875,-0.44377434253692627,-1.1930842399597168,-0.9681505560874939
2.272771484375,-0.45033320784568787,-0.9487257599830627,-0.9386463165283203
2.28278076171875,-0.47058841586112976,-0.6556124091148376,-0.8328958749771118
2.292790771484375,-0.46503809094429016,-0.4672256410121918,-0.6724692583084106
2.302769775390625,-0.3937623202800751,-0.45611467957496643,-0.6072561740875244
2.31277978515625,-0.36234980821609497,-0.6297808885574341,-0.5998927354812622
2.322758544921875,-0.3898240327835083,-0.8718127012252808,-0.5747650265693665
2.332768798828125,-0.45391273498535156,-1.0786808729171753,-0.4581645727157593
2.342778564453125,-0.5204986929893494,-1.2539807558059692,-0.28759363293647766
2.3527578125,-0.592096745967865,-1.3732590675354004,-0.13277579843997955
2.362767578125,-0.6250821352005005,-1.3778018951416016,-0.05513026565313339
2.37277783203125,-0.6211895942687988,-1.2363003492355347,-0.04674902185797691
2.382756591796875,-0.5612839460372925,-0.9937683939933777,-0.06074952706694603
2.3927666015625,-0.4785408675670624,-0.7925999164581299,-0.0817011222243309
2.402745849609375,-0.39068958163261414,-0.7010585069656372,-0.11001291871070862
2.412755615234375,-0.3290025293827057,-0.7394132614135742,-0.15261510014533997
2.422765869140625,-0.31718021631240845,-0.7812789678573608,-0.18255355954170227
2.43274462890625,-0.3652939200401306,-0.810032069683075,-0.1548505276441574
2.4427548828125,-0.4636974632740021,-0.8689574599266052,-0.13159580528736115
2.452763671875,-0.5456370711326599,-0.9392983317375183,-0.09226718544960022
2.462743896484375,-0.5981977581977844,-0.9291234612464905,-0.08786045759916306
2.472752685546875,-0.639316201210022,-0.8454520106315613,-0.10307110100984573
2.48273291015625,-0.6169448494911194,-0.7185086607933044,-0.08848655968904495
2.49274169921875,-0.5332791805267334,-0.5595170259475708,-0.06580782681703568
2.50275146484375,-0.4345978796482086,-0.5060654878616333,-0.0488101989030838
2.512730712890625,-0.33556506037712097,-0.5869507193565369,-0.07046951353549957
2.52274072265625,-0.268917053937912,-0.6622028350830078,-0.10963049530982971
2.53275048828125,-0.3042590618133545,-0.6665717363357544,-0.10430660098791122
2.542729736328125,-0.3897278904914856,-0.600555419921875,-0.08532945066690445
2.552739501953125,-0.47936540842056274,-0.4511844515800476,-0.10606081783771515
2.56271875,-0.5100974440574646,-0.3094140291213989,-0.08688099682331085
2.572728515625,-0.48164692521095276,-0.32475605607032776,0.01691528968513012
2.58273876953125,-0.3945485055446625,-0.4475110173225403,-0.004772162530571222
2.592717529296875,-0.28510984778404236,-0.5259838104248047,-0.1380324810743332
2.602727783203125,-0.25677648186683655,-0.5309535264968872,-0.2398137003183365
2.61273681640625,-0.2844589948654175,-0.5163729786872864,-0.2728765904903412
2.622716552734375,-0.3336763381958008,-0.5678468346595764,-0.2948513925075531
2.632726806640625,-0.3567776679992676,-0.7085513472557068,-0.2925322651863098
2.64270556640625,-0.3682364225387573,-0.7938494682312012,-0.3434146046638489
