seconds_elapsed,z,y,x
0.024939453125,-0.018389496952295303,-0.2932809293270111,0.24134933948516846
0.034949462890625,0.0071747214533388615,-0.3208385705947876,0.22111733257770538
0.04495947265625,0.022107597440481186,-0.40205591917037964,0.24203139543533325
0.0549384765625,0.021751783788204193,-0.524802029132843,0.3166009783744812
0.064948486328125,0.011148140765726566,-0.7122198343276978,0.44877952337265015
0.074927490234375,-0.025912407785654068,-0.9696937203407288,0.6480193734169006
0.0849375,-0.09268637746572495,-1.2685627937316895,0.8836843967437744
0.094947509765625,-0.18425358831882477,-1.5793485641479492,1.1264384984970093
0.104926513671875,-0.3112056851387024,-1.863185167312622,1.3873393535614014
0.1149365234375,-0.42390984296798706,-2.1145036220550537,1.6395503282546997
0.124945556640625,-0.4667835533618927,-2.3264667987823486,1.8400804996490479
0.134925537109375,-0.48412150144577026,-2.4894182682037354,2.0138297080993652
0.1449345703125,-0.5025591254234314,-2.600957155227661,2.190932273864746
0.15491455078125,-0.5199048519134521,-2.7250633239746094,2.3566572666168213
0.164923583984375,-0.5883632302284241,-2.8479580879211426,2.526670455932617
0.17493359375,-0.7301110625267029,-2.9652507305145264,2.6895058155059814
0.18491259765625,-0.9110046625137329,-3.1035258769989014,2.8318793773651123
0.194922607421875,-1.0796067714691162,-3.2902069091796875,2.952446460723877
0.2049326171875,-1.2409149408340454,-3.473599433898926,3.029510736465454
0.21491162109375,-1.3971226215362549,-3.672088146209717,3.1113529205322266
0.224921630859375,-1.5393697023391724,-3.877224922180176,3.230973482131958
0.234900634765625,-1.6439388990402222,-4.038479328155518,3.353151798248291
0.24491064453125,-1.7028660774230957,-4.135460376739502,3.4550297260284424
0.25492724609375,-1.704346776008606,-4.170666694641113,3.539741277694702
0.26490625,-1.6939324140548706,-4.153382778167725,3.575373411178589
0.274916259765625,-1.6760005950927734,-4.114572525024414,3.5395431518554688
0.28492529296875,-1.6406489610671997,-4.136330604553223,3.4427852630615234
0.294905517578125,-1.6120740175247192,-4.194611549377441,3.35204815864563
0.304915283203125,-1.616049885749817,-4.262767791748047,3.292637825012207
0.31489453125,-1.6218370199203491,-4.315146446228027,3.2520179748535156
0.324904296875,-1.542930245399475,-4.338313102722168,3.213902711868286
0.334913330078125,-1.3813905715942383,-4.343728065490723,3.1489195823669434
0.344893310546875,-1.179425835609436,-4.336732387542725,3.057178258895874
0.35490234375,-0.9736906290054321,-4.288755893707275,2.9884731769561768
0.36491259765625,-0.7862089276313782,-4.217838764190674,2.9234611988067627
0.37489111328125,-0.6592299342155457,-4.124148368835449,2.834482431411743
0.3849013671875,-0.5380721092224121,-4.044852256774902,2.7577524185180664
0.394880126953125,-0.38488149642944336,-3.995030164718628,2.692375898361206
0.40489013671875,-0.23371432721614838,-3.990241289138794,2.63472056388855
0.414900390625,-0.09408348053693771,-4.016479969024658,2.593874931335449
0.424879150390625,0.04956822842359543,-4.033807277679443,2.573787212371826
0.434889404296875,0.18760038912296295,-4.000199794769287,2.5285451412200928
0.444899169921875,0.36069679260253906,-3.910477638244629,2.439831495285034
0.45487841796875,0.5470227599143982,-3.7868878841400146,2.3207712173461914
0.46488818359375,0.7147417664527893,-3.6495001316070557,2.1851954460144043
0.474867431640625,0.8667842149734497,-3.499987840652466,2.0367298126220703
0.484877197265625,0.9955227375030518,-3.4066901206970215,1.9208301305770874
0.49488623046875,1.102719783782959,-3.361966133117676,1.845179557800293
0.5048662109375,1.2232991456985474,-3.351029634475708,1.7971528768539429
0.514875244140625,1.3636739253997803,-3.325770854949951,1.7469087839126587
0.524885498046875,1.4999351501464844,-3.3028266429901123,1.6789073944091797
0.5348642578125,1.6103720664978027,-3.2833499908447266,1.6059496402740479
0.544874267578125,1.703606128692627,-3.219302177429199,1.4934824705123901
0.554853271484375,1.7769190073013306,-3.1246259212493896,1.3562155961990356
0.56486328125,1.8252098560333252,-3.009861707687378,1.230438470840454
0.57487353515625,1.8375487327575684,-2.8758339881896973,1.1419553756713867
0.584852294921875,1.8370206356048584,-2.7833571434020996,1.0986648797988892
0.594862548828125,1.8584606647491455,-2.7464425563812256,1.083840250968933
0.604872314453125,1.8930373191833496,-2.7676219940185547,1.0997737646102905
0.6148515625,1.949275255203247,-2.8277297019958496,1.1524053812026978
0.624861328125,2.0360028743743896,-2.9090611934661865,1.2272521257400513
0.63484033203125,2.150285482406616,-2.983133554458618,1.2832460403442383
0.644850341796875,2.252176523208618,-3.0336670875549316,1.3190141916275024
0.6548603515625,2.3314101696014404,-3.057284355163574,1.3578081130981445
0.664839599609375,2.380610942840576,-3.0684401988983154,1.4089854955673218
0.674849365234375,2.402904510498047,-3.0587148666381836,1.4061317443847656
0.684858154296875,2.3947336673736572,-3.006664991378784,1.34035325050354
0.694838134765625,2.377817153930664,-2.925701856613159,1.2501423358917236
0.70484716796875,2.3581836223602295,-2.815920114517212,1.144168496131897
0.7148271484375,2.346999406814575,-2.717001438140869,1.0258022546768188
0.724836181640625,2.3643133640289307,-2.6608638763427734,0.926972508430481
0.734846435546875,2.428179979324341,-2.625089406967163,0.8327093124389648
0.7448251953125,2.5109691619873047,-2.589864730834961,0.7381335496902466
0.75483544921875,2.602313280105591,-2.59167742729187,0.6867986917495728
0.76484521484375,2.7006726264953613,-2.654841661453247,0.7174674272537231
0.77482421875,2.812894582748413,-2.794229745864868,0.7980120778083801
0.78483447265625,2.909707546234131,-2.9349584579467773,0.8959966897964478
0.794813232421875,2.9559402465820312,-3.0179760456085205,1.0153138637542725
0.804823486328125,2.993016004562378,-3.044671058654785,1.1087895631790161
0.814833251953125,3.0638070106506348,-2.9716544151306152,1.1053118705749512
0.8248125,3.2104644775390625,-2.772289752960205,0.9329622387886047
0.834822265625,3.414233922958374,-2.5100016593933105,0.5771288871765137
0.844831298828125,3.636995315551758,-2.2475662231445312,0.10309633612632751
0.854811279296875,3.8315179347991943,-2.0527029037475586,-0.3800298869609833
0.8648212890625,3.96914005279541,-1.9123694896697998,-0.7955924868583679
0.87480029296875,4.042242527008057,-1.8328824043273926,-1.0725761651992798
0.884810302734375,4.063287258148193,-1.8147740364074707,-1.1962834596633911
0.8948193359375,4.077865123748779,-1.8788471221923828,-1.1973472833633423
0.90479931640625,4.103842258453369,-2.023951768875122,-1.094906210899353
0.914808349609375,4.132319927215576,-2.1964833736419678,-0.9063640832901001
0.924818359375,4.149645805358887,-2.3352503776550293,-0.6986787915229797
0.934797119140625,4.166093349456787,-2.3808305263519287,-0.5517390370368958
0.944807373046875,4.174098014831543,-2.305342197418213,-0.5038899779319763
0.9547861328125,4.249751091003418,-2.1256117820739746,-0.6050074696540833
0.96479638671875,4.39525032043457,-1.8566478490829468,-0.9064123630523682
0.97480615234375,4.507735729217529,-1.587829828262329,-1.2975895404815674
0.984785400390625,4.573709011077881,-1.449515700340271,-1.5978132486343384
0.994795166015625,4.601034641265869,-1.4265570640563965,-1.7638757228851318
1.00480517578125,4.604779243469238,-1.4388656616210938,-1.775442123413086
1.014784423828125,4.63287878036499,-1.5353329181671143,-1.6194814443588257
1.024794189453125,4.7455854415893555,-1.8254656791687012,-1.2408307790756226
1.0347734375,4.8824944496154785,-2.1274211406707764,-0.6416223645210266
1.044783203125,4.936625003814697,-2.2086260318756104,0.03647014498710632
1.054792236328125,4.871057033538818,-1.9348249435424805,0.522274911403656
1.064772216796875,4.781485080718994,-1.385738730430603,0.5875065922737122
1.07478125,4.719581127166748,-0.8111074566841125,0.20305006206035614
1.08479150390625,4.613840103149414,-0.3089665472507477,-0.5321943759918213
1.094770263671875,4.473554611206055,0.03642480820417404,-1.4200273752212524
1.104780517578125,4.341015338897705,0.31489717960357666,-2.1712188720703125
1.11475927734375,4.2063703536987305,0.5079459547996521,-2.7061073780059814
1.124769287109375,4.1011481285095215,0.3937184512615204,-2.8439488410949707
1.134779296875,3.956385612487793,0.08092893660068512,-2.422710657119751
1.14475830078125,3.718096971511841,-0.1603209674358368,-1.6636303663253784
1.1547685546875,3.3660848140716553,-0.050191909074783325,-0.951758623123169
1.1647783203125,3.029311418533325,0.36469075083732605,-0.6472184658050537
1.174757568359375,2.8061556816101074,0.8972002863883972,-0.8668878078460693
1.184767333984375,2.663620710372925,1.4591288566589355,-1.4771887063980103
1.19474658203125,2.6058006286621094,2.037477970123291,-2.3160884380340576
1.20475634765625,2.596634864807129,2.5328869819641113,-3.177875518798828
1.214766357421875,2.5787148475646973,2.8525216579437256,-3.8695807456970215
1.224745361328125,2.513197183609009,2.7345783710479736,-4.144484996795654
1.234755126953125,2.3682384490966797,2.314626455307007,-3.6580357551574707
1.244764404296875,2.1188766956329346,2.0362560749053955,-2.6508519649505615
1.254729248046875,1.866841197013855,2.0797955989837646,-1.663528561592102
1.264738525390625,1.703974962234497,2.40266752243042,-1.0704703330993652
1.27471826171875,1.6150497198104858,2.8973660469055176,-0.8804671764373779
1.2847275390625,1.6647754907608032,3.3718314170837402,-1.001062035560608
1.294737548828125,1.8633159399032593,3.757354497909546,-1.361015796661377
1.30471630859375,2.15232515335083,4.160585403442383,-1.882677674293518
1.3147265625,2.5642192363739014,4.612738132476807,-2.457106351852417
1.324736572265625,3.0274713039398193,5.06990909576416,-2.966752052307129
1.33471533203125,3.4627749919891357,5.329207420349121,-3.293084144592285
1.344725341796875,3.8211569786071777,5.55275821685791,-3.21948504447937
1.354704345703125,4.2173309326171875,5.889845848083496,-3.1022896766662598
1.36471435546875,4.772052764892578,6.326291561126709,-3.014007806777954
1.37472412109375,5.429928779602051,6.712253570556641,-3.029778480529785
1.384703369140625,6.2705607414245605,7.005653381347656,-3.1261513233184814
1.394713134765625,7.173458099365234,6.938973903656006,-2.9570724964141846
1.404723388671875,8.0264310836792,6.3397088050842285,-2.105109453201294
1.414702392578125,8.70850658416748,5.403692722320557,-0.1636081486940384
1.42471240234375,9.249907493591309,4.218478679656982,2.738081693649292
1.43469140625,9.544572830200195,2.6745810508728027,6.852165222167969
1.444701416015625,9.373932838439941,1.585977554321289,11.728021621704102
1.45471044921875,9.143418312072754,0.9758700728416443,16.548019409179688
1.464690185546875,8.956330299377441,0.7834646701812744,21.082332611083984
1.474699462890625,8.098031044006348,0.676792323589325,25.03139305114746
1.48470947265625,5.670746326446533,0.15758827328681946,28.14957618713379
1.4946884765625,1.9591069221496582,-0.641345202922821,29.617807388305664
1.504698486328125,-1.8619928359985352,-1.3559157848358154,29.3737850189209
1.514677490234375,-5.3613457679748535,-1.757677435874939,27.9939022064209
1.5246875,-8.268317222595215,-1.6137632131576538,25.874563217163086
1.534697265625,-10.365194320678711,-1.341304898262024,23.228973388671875
1.544676513671875,-11.445018768310547,-1.4039090871810913,19.881498336791992
1.5546865234375,-11.520979881286621,-1.500447392463684,15.62248420715332
1.564696533203125,-11.120715141296387,-0.9023810029029846,10.8917236328125
1.574675537109375,-10.701834678649902,0.5086190104484558,6.673385143280029
1.584685546875,-10.201682090759277,1.885114312171936,3.460336208343506
1.59466455078125,-9.577665328979492,2.657289981842041,1.3162068128585815
1.60467431640625,-8.94178581237793,2.8806662559509277,0.24243813753128052
1.614683349609375,-8.258231163024902,2.602820634841919,-0.04175654426217079
1.624663330078125,-7.604452133178711,2.0644052028656006,0.1533205360174179
1.63467236328125,-7.013755798339844,1.529076337814331,0.6132108569145203
1.644682373046875,-6.483354091644287,1.1603357791900635,1.0228726863861084
1.6546611328125,-6.0499396324157715,0.8670830130577087,1.2005085945129395
1.66467138671875,-5.6923980712890625,0.6544229388237,1.1037461757659912
1.674650146484375,-5.390782833099365,0.6502159237861633,0.7258414626121521
1.684660400390625,-5.1221818923950195,0.8117390275001526,0.17424115538597107
1.69467041015625,-4.875085830688477,1.0573533773422241,-0.46456316113471985
1.7046494140625,-4.646957874298096,1.3056644201278687,-1.0947376489639282
1.714659423828125,-4.423400402069092,1.5142512321472168,-1.6075541973114014
1.72466943359375,-4.201548099517822,1.6757831573486328,-1.9717897176742554
1.7346484375,-3.9563546180725098,1.7207311391830444,-2.205927848815918
1.744658203125,-3.6806209087371826,1.665234088897705,-2.3267264366149902
1.754637451171875,-3.4150054454803467,1.608707308769226,-2.43251633644104
1.764647216796875,-3.1643645763397217,1.5724132061004639,-2.5307888984680176
1.774657470703125,-2.941188097000122,1.5337793827056885,-2.582463502883911
1.784636474609375,-2.699082612991333,1.5935660600662231,-2.6851468086242676
1.794646484375,-2.4148147106170654,1.7631667852401733,-2.905040979385376
1.804655517578125,-2.138715982437134,1.8966805934906006,-3.1277923583984375
1.814635498046875,-1.8754169940948486,1.944318175315857,-3.227247714996338
1.82464453125,-1.602805733680725,1.9636785984039307,-3.2087550163269043
1.834624267578125,-1.3141508102416992,1.9350472688674927,-3.1109635829925537
1.844633544921875,-1.0020842552185059,1.8121898174285889,-2.9870972633361816
1.8546435546875,-0.7367641925811768,1.6176508665084839,-2.834713935852051
1.86462255859375,-0.5243344902992249,1.3916196823120117,-2.6505842208862305
1.87463232421875,-0.29880788922309875,1.2434957027435303,-2.558699607849121
1.88464208984375,-0.05223006755113602,1.255104899406433,-2.717482328414917
1.894621337890625,0.18249084055423737,1.4588736295700073,-3.1144773960113525
1.90463134765625,0.36759862303733826,1.7663627862930298,-3.6409897804260254
1.9146103515625,0.48800894618034363,1.9797104597091675,-4.1176533699035645
1.924620361328125,0.6144611835479736,2.068157911300659,-4.449130058288574
1.93463037109375,0.6764259934425354,2.0904345512390137,-4.655344009399414
1.944609375,0.6741495132446289,1.9840155839920044,-4.8495097160339355
1.954619384765625,0.6680862903594971,1.7752820253372192,-5.0948967933654785
1.96462939453125,0.6510183811187744,1.6476253271102905,-5.395859241485596
1.974608154296875,0.6541829705238342,1.6601471900939941,-5.668028354644775
1.984618408203125,0.6945213675498962,1.786125659942627,-5.925238609313965
1.99459716796875,0.7724295258522034,1.973298192024231,-6.1654181480407715
2.004607421875,0.8095608949661255,2.0508792400360107,-6.313300132751465
2.014616455078125,0.8313966989517212,1.933073878288269,-6.284628391265869
2.024596435546875,0.8969725370407104,1.6986078023910522,-6.179207801818848
2.03460546875,0.9542126059532166,1.342227816581726,-6.026042461395264
2.044615478515625,0.913166344165802,0.9014351963996887,-5.7664642333984375
2.054594482421875,0.6629224419593811,0.49554869532585144,-5.359604358673096
2.0646044921875,0.35636940598487854,0.2144714891910553,-4.774179935455322
2.07458349609375,0.11017002910375595,0.037617020308971405,-4.137317657470703
2.084593505859375,-0.09053457528352737,0.04307330399751663,-3.5724005699157715
2.094603271484375,-0.18136434257030487,0.10667504370212555,-3.1302013397216797
2.10458251953125,-0.13769835233688354,0.06721445173025131,-2.9583399295806885
2.11459228515625,-0.07883022725582123,-0.07291530817747116,-2.948003053665161
2.1246025390625,-0.0884556844830513,-0.23926354944705963,-2.8746728897094727
2.134581298828125,-0.12516498565673828,-0.37814539670944214,-2.6295700073242188
2.144591552734375,-0.11618374288082123,-0.5227912068367004,-2.290476083755493
2.154570556640625,-0.11328621953725815,-0.7034439444541931,-1.9273184537887573
2.16458056640625,-0.1050860807299614,-0.8604031801223755,-1.5473213195800781
2.17458935546875,-0.06793098151683807,-0.9204844236373901,-1.2136671543121338
2.1845693359375,0.013780391775071621,-0.9224091172218323,-0.9970499277114868
2.194578369140625,0.11034076660871506,-0.8568862676620483,-0.9377930164337158
2.20458837890625,0.1889580637216568,-0.7319318056106567,-0.9109451770782471
2.2145673828125,0.21902036666870117,-0.6738640666007996,-0.8146631121635437
2.224577392578125,0.21583549678325653,-0.6805102825164795,-0.684334397315979
2.234556396484375,0.1573050618171692,-0.7946862578392029,-0.6083821058273315
2.24456640625,0.051672909408807755,-0.9760003685951233,-0.5705391764640808
2.254584716796875,-0.08755633980035782,-1.072415828704834,-0.5105486512184143
2.264563720703125,-0.24481360614299774,-1.0694165229797363,-0.40527552366256714
2.27457373046875,-0.3539118766784668,-1.036434531211853,-0.273812860250473
2.284583740234375,-0.3920808434486389,-0.9772561192512512,-0.18054042756557465
2.294562744140625,-0.3976188898086548,-0.9305451512336731,-0.14145395159721375
2.30457275390625,-0.3964979648590088,-0.8989028334617615,-0.10719079524278641
2.3145517578125,-0.39275461435317993,-0.8608857989311218,-0.06078370288014412
2.324561767578125,-0.3655589520931244,-0.7949797511100769,0.003537761513143778
2.334571533203125,-0.36487501859664917,-0.7375003099441528,0.05590968206524849
2.34455078125,-0.3999381959438324,-0.6943891048431396,0.09963132441043854
2.354560791015625,-0.42463716864585876,-0.7725269794464111,0.09972161054611206
2.36456982421875,-0.40307462215423584,-0.8781253099441528,0.0660368874669075
2.3745498046875,-0.43215981125831604,-0.9365216493606567,0.05123225599527359
2.38455908203125,-0.4602566957473755,-1.0023539066314697,0.047223933041095734
2.394538818359375,-0.471871018409729,-1.035436749458313,0.02467554248869419
2.4045478515625,-0.5092130899429321,-1.0224002599716187,0.0028416165150702
2.414557861328125,-0.537185788154602,-1.0017746686935425,0.038844529539346695
2.424536865234375,-0.5123171806335449,-0.9422082901000977,0.061344511806964874
2.434546875,-0.4731735289096832,-0.8355071544647217,0.028112521395087242
2.444556884765625,-0.43392571806907654,-0.7098453640937805,-0.013538251630961895
2.454535888671875,-0.40094277262687683,-0.6465312242507935,-0.024691948667168617
2.4645458984375,-0.42745479941368103,-0.7128231525421143,-0.04968465119600296
2.474524658203125,-0.47694751620292664,-0.7437493801116943,-0.17212270200252533
2.48453466796875,-0.543685793876648,-0.7411203384399414,-0.26534372568130493
2.494544677734375,-0.5948083996772766,-0.749894380569458,-0.2807679772377014
2.504523681640625,-0.6107181310653687,-0.7896590828895569,-0.22024762630462646
2.51453369140625,-0.6112653613090515,-0.8360660672187805,-0.1420285999774933
2.524543701171875,-0.5824403762817383,-0.8521502614021301,-0.0508187972009182
2.534522705078125,-0.5300567746162415,-0.8441963195800781,0.008981199935078621
2.54453271484375,-0.4642234742641449,-0.8422572612762451,-0.004969502799212933
2.55451171875,-0.38315123319625854,-0.8615878820419312,-0.034369878470897675
2.564521484375,-0.318332314491272,-0.9170050621032715,-0.06375200301408768
2.57453076171875,-0.29122185707092285,-0.9587777256965637,-0.11666806787252426
