seconds_elapsed,z,y,x
0.028767822265625,-0.008890917524695396,-0.021526286378502846,0.04504111781716347
0.038777587890625,0.01889963634312153,-0.23686744272708893,-0.03060472197830677
0.0487568359375,3.77981923520565e-05,-0.384674996137619,0.009701156057417393
0.0587666015625,-0.1034696027636528,-0.5093889832496643,0.1537594348192215
0.068775634765625,-0.23061983287334442,-0.34123483300209045,0.42726820707321167
0.078755615234375,-0.2606818377971649,-0.1659477949142456,0.5860878825187683
0.0887646484375,-0.275166779756546,0.033916059881448746,0.5350934267044067
0.09877490234375,-0.24344870448112488,0.2350742071866989,0.37461262941360474
0.108754638671875,-0.17629657685756683,0.31026190519332886,0.14175967872142792
0.118763916015625,-0.07261107116937637,0.1604907512664795,-0.02079106494784355
0.12874365234375,-0.04200629144906998,-0.12186185270547867,-0.099458709359169
0.138752685546875,-0.07472030818462372,-0.2929736375808716,-0.002678463002666831
0.1487626953125,-0.11239072680473328,-0.4637296497821808,0.054117441177368164
0.158741455078125,-0.22776299715042114,-0.5581798553466797,0.019481178373098373
0.168751708984375,-0.3372652530670166,-0.3730638027191162,0.09379882365465164
0.178761474609375,-0.35695338249206543,-0.21078483760356903,0.10859391838312149
0.18874072265625,-0.3131941854953766,-0.10606534779071808,-0.04275912046432495
0.19875048828125,-0.22660912573337555,-0.05822652578353882,-0.2202724665403366
0.208729736328125,-0.127108633518219,-0.09115651249885559,-0.3482906222343445
0.21873974609375,-0.023467794060707092,-0.21504071354866028,-0.4719805419445038
0.22874951171875,0.031023142859339714,-0.28322935104370117,-0.5884948372840881
0.238728759765625,0.0762992650270462,-0.4732775390148163,-0.5901970267295837
0.248738525390625,0.13818474113941193,-0.9816315770149231,-0.3508123755455017
0.2587177734375,0.23933707177639008,-1.627718448638916,0.14022624492645264
0.2687275390625,0.2099461555480957,-2.3958420753479004,0.7117688655853271
0.27873681640625,0.0688924789428711,-3.3606529235839844,1.5072121620178223
0.288716552734375,-0.01539283711463213,-4.175511837005615,2.3492259979248047
0.2987255859375,0.06780633330345154,-4.62880277633667,2.874638080596924
0.30873583984375,0.2735869288444519,-4.727750778198242,2.8408524990081787
0.318714599609375,0.5366367697715759,-4.810869216918945,2.3832285404205322
0.328724853515625,0.696092963218689,-5.0261921882629395,1.736057996749878
0.33870361328125,0.8447914123535156,-5.4633378982543945,1.1405596733093262
0.3487138671875,0.9211565256118774,-5.779054164886475,0.7023623585700989
0.358723876953125,0.7264916300773621,-5.65683126449585,0.48832258582115173
0.368702880859375,0.5192638635635376,-4.983029365539551,0.4314284026622772
0.378712890625,0.4006503224372864,-3.571528196334839,0.4219285845756531
0.38872265625,0.35668206214904785,-1.8835186958312988,0.6292538642883301
0.398701904296875,0.3503413498401642,-1.0432440042495728,1.0601462125778198
0.408711669921875,0.38483408093452454,-1.2718687057495117,1.5896663665771484
0.41869091796875,0.4921538829803467,-1.7686326503753662,1.7538337707519531
0.428700439453125,0.45737940073013306,-1.6519300937652588,1.4264072179794312
0.438710693359375,0.28919845819473267,-1.2216565608978271,1.0119043588638306
0.448689697265625,0.233337864279747,-0.8358769416809082,0.7439978122711182
0.458699462890625,0.2666025161743164,-0.5019896030426025,0.5688104033470154
0.4686787109375,0.3403526544570923,-0.20720669627189636,0.3260153830051422
0.4786884765625,0.4510371685028076,0.0900527611374855,-0.01380656473338604
0.48869775390625,0.5320515632629395,0.42722731828689575,-0.34567028284072876
0.498677490234375,0.5875715017318726,0.8193854689598083,-0.5988680720329285
0.508686767578125,0.6108049154281616,0.9880461096763611,-0.7061671018600464
0.51869677734375,0.5978614687919617,0.7705402970314026,-0.7030794024467468
0.528675537109375,0.5164587497711182,0.44403061270713806,-0.6414136290550232
0.538685791015625,0.33826586604118347,0.13624794781208038,-0.3995737135410309
0.54866455078125,0.20684926211833954,-0.06694058328866959,-0.15008769929409027
0.5586748046875,0.10386291146278381,-0.17347781360149384,0.0611552931368351
0.5686845703125,0.03656642138957977,-0.2743666172027588,0.2258603572845459
0.578663818359375,-0.15954145789146423,-0.42585206031799316,0.1998973935842514
0.588673828125,-0.3835604190826416,-0.35573315620422363,-0.1604304313659668
0.59868359375,-0.2752901613712311,-0.1667233109474182,-0.19489839673042297
0.608662841796875,-0.4019716680049896,-0.13003453612327576,-0.3442801535129547
0.618672607421875,-0.44913235306739807,-0.16784469783306122,-0.3289567828178406
0.62865185546875,-0.5367000699043274,-0.435185045003891,-0.12967802584171295
0.63866162109375,-0.6939776539802551,-0.634502112865448,-0.05842391029000282
0.6486708984375,-0.90595942735672,-0.8273077607154846,-0.09603413939476013
0.658650634765625,-1.175635814666748,-1.1180750131607056,-0.0521676130592823
0.668660888671875,-1.5012270212173462,-1.3768572807312012,-0.0508863665163517
0.6786396484375,-1.8712998628616333,-1.6088727712631226,-0.08938484638929367
0.68864990234375,-2.221846103668213,-1.8868173360824585,-0.06061924621462822
0.69865869140625,-2.478937864303589,-2.1859962940216064,-0.07642395794391632
0.708638671875,-2.6488943099975586,-2.560835838317871,-0.04028299078345299
0.71864453125,-2.8004257678985596,-3.1637935638427734,0.11055951565504074
0.728654541015625,-3.0072531700134277,-3.8350040912628174,0.24705824255943298
0.738633544921875,-3.2901203632354736,-4.537613391876221,0.42739713191986084
0.7486435546875,-3.6147477626800537,-5.17363166809082,0.662225067615509
0.75862255859375,-3.9157161712646484,-5.393592834472656,0.7161821126937866
0.768632568359375,-4.105913162231445,-5.561553955078125,0.7335163950920105
0.778642578125,-4.133591175079346,-5.809551239013672,0.7152772545814514
0.78862158203125,-3.971313714981079,-6.005913734436035,0.6559644341468811
0.798631591796875,-3.694488286972046,-6.18802547454834,0.5995244383811951
0.8086416015625,-3.3604423999786377,-6.244868278503418,0.5101812481880188
0.818620361328125,-3.0607616901397705,-6.205742835998535,0.4787423312664032
0.828630615234375,-2.7962024211883545,-6.477252960205078,0.6825364828109741
0.838609619140625,-2.537370443344116,-6.561381816864014,0.9717786908149719
0.84861962890625,-2.139183521270752,-6.611349105834961,1.0880056619644165
0.858628662109375,-1.6416985988616943,-6.629726409912109,0.9799229502677917
0.868608642578125,-1.1185152530670166,-6.4522480964660645,0.7112257480621338
0.87861767578125,-0.5590816140174866,-6.1514573097229,0.2626357674598694
0.88859765625,-0.0205741748213768,-5.743017196655273,-0.1813184916973114
0.898606689453125,0.44411394000053406,-5.489593505859375,-0.4771951735019684
0.90861669921875,0.8680673241615295,-5.446194171905518,-0.6122277975082397
0.918595703125,1.2231802940368652,-5.435559272766113,-0.6393000483512878
0.928605712890625,1.488059639930725,-5.428620338439941,-0.559055507183075
0.938615478515625,1.6804689168930054,-5.541971206665039,-0.3038312792778015
0.948594482421875,1.8401893377304077,-5.720508098602295,0.12099219113588333
0.9586044921875,1.9595118761062622,-5.804338455200195,0.5530170202255249
0.96858349609375,2.072887420654297,-5.758547306060791,0.8968692421913147
0.978593505859375,2.2517101764678955,-5.6497321128845215,1.143154501914978
0.988603515625,2.5169780254364014,-5.499118804931641,1.3149774074554443
0.99858251953125,2.8544979095458984,-5.315427780151367,1.4365394115447998
1.008592529296875,3.1977763175964355,-5.1668806076049805,1.5241923332214355
1.0186025390625,3.438955783843994,-5.123161792755127,1.546404480934143
1.02858154296875,3.594646692276001,-5.065882682800293,1.5107101202011108
1.038591552734375,3.787959098815918,-4.978902816772461,1.5252562761306763
1.0485703125,4.0729827880859375,-4.892468452453613,1.6887791156768799
1.05858056640625,4.375820636749268,-4.670137882232666,1.8623219728469849
1.068589599609375,4.637667655944824,-4.280353546142578,1.8327590227127075
1.078569580078125,4.911679267883301,-3.8834068775177,1.5997843742370605
1.08857861328125,5.20766544342041,-3.5956249237060547,1.2727059125900269
1.09855859375,5.483071327209473,-3.4015865325927734,1.012831449508667
1.108567626953125,5.660554885864258,-3.3652515411376953,0.8712442517280579
1.11857763671875,5.678593158721924,-3.395477294921875,0.964741051197052
1.128556640625,5.598423480987549,-3.4030611515045166,1.1686114072799683
1.138566650390625,5.654345512390137,-3.294790267944336,1.3028550148010254
1.14857666015625,5.7844109535217285,-2.938450813293457,1.2029976844787598
1.1585556640625,5.835110187530518,-2.337458372116089,0.623528242111206
1.168565673828125,5.7944016456604,-1.823096752166748,-0.27075836062431335
1.178544677734375,5.715057849884033,-1.515105128288269,-1.1139342784881592
1.188554443359375,5.57537841796875,-1.287514567375183,-1.781837821006775
1.198564697265625,5.244228839874268,-1.4431970119476318,-1.9852696657180786
1.208543701171875,4.687178611755371,-2.0417733192443848,-1.2754895687103271
1.2185537109375,4.1146769523620605,-2.624919891357422,0.0024445923045277596
1.228563720703125,3.6491620540618896,-2.8907206058502197,0.9071593284606934
1.238542724609375,3.4301040172576904,-2.7453784942626953,1.0796955823898315
1.248552490234375,3.495530128479004,-2.3086698055267334,0.6514602899551392
1.258531494140625,3.828169107437134,-1.6718592643737793,-0.14269207417964935
1.26854150390625,4.266963481903076,-0.877622127532959,-1.0855478048324585
1.278550537109375,4.624408721923828,-0.1684226095676422,-2.0381529331207275
1.288530517578125,4.713216304779053,0.16821612417697906,-2.759279727935791
1.29853955078125,4.389044761657715,0.07911962270736694,-2.705265998840332
1.30851953125,3.7942605018615723,-0.26588889956474304,-2.0198910236358643
1.318528564453125,3.110814332962036,-0.6552124619483948,-0.9987087845802307
1.32853857421875,2.503648519515991,-0.8424707651138306,-0.1968342363834381
1.338517578125,2.134267807006836,-0.7926807403564453,-0.14744387567043304
1.348527587890625,2.0387301445007324,-0.4597166180610657,-0.6905322074890137
1.35853759765625,2.1420388221740723,0.16705122590065002,-1.4863418340682983
1.3685166015625,2.458484172821045,0.8406160473823547,-2.2714900970458984
1.378526611328125,2.9687893390655518,1.6076403856277466,-3.141421318054199
1.388505615234375,3.3520820140838623,2.372468948364258,-4.045875072479248
1.398515625,3.2534966468811035,2.429330587387085,-4.166354656219482
1.408525634765625,2.772900104522705,2.062831163406372,-3.6207427978515625
1.41850439453125,2.1563024520874023,1.8840221166610718,-3.0299599170684814
1.4285146484375,1.5693026781082153,1.910994291305542,-2.787616491317749
1.438523681640625,1.2535234689712524,2.0216007232666016,-2.956097364425659
1.448503662109375,1.3681925535202026,2.434178113937378,-3.1999802589416504
1.4585126953125,1.832688331604004,3.2275772094726562,-3.248866558074951
1.46849267578125,2.39875864982605,3.840062379837036,-2.8097453117370605
1.478501708984375,2.5913381576538086,4.328019618988037,-2.2414350509643555
1.488511474609375,2.394216775894165,4.283461570739746,-0.9138818979263306
1.498490478515625,1.9867777824401855,4.218562126159668,0.3155986964702606
1.50850048828125,1.6972306966781616,4.537837505340576,1.2143115997314453
1.518480712890625,1.6480927467346191,5.123260021209717,1.9608758687973022
1.528489501953125,1.7967983484268188,5.940790176391602,2.694570302963257
1.53849951171875,2.0661823749542236,6.79149055480957,3.444089651107788
1.548478515625,2.3737380504608154,7.5619215965271,4.092124938964844
1.558488525390625,2.711186408996582,8.3480806350708,4.493886947631836
1.56849853515625,3.0132734775543213,9.16927719116211,4.512448787689209
1.5784775390625,2.818448781967163,9.014260292053223,5.119913578033447
1.588487548828125,2.368666172027588,8.26777458190918,7.114948272705078
1.598466552734375,1.4434788227081299,8.051314353942871,9.370156288146973
1.6084765625,-0.10567617416381836,7.817491054534912,11.671600341796875
1.618486572265625,-2.056840419769287,7.579257488250732,14.12181568145752
1.628465576171875,-4.203629016876221,7.579505920410156,16.40296173095703
1.6384755859375,-6.603991985321045,7.866741180419922,18.284399032592773
1.648484619140625,-9.253724098205566,8.493977546691895,19.541114807128906
1.658464599609375,-11.922204971313477,8.842095375061035,20.321523666381836
1.6684736328125,-14.167545318603516,8.562029838562012,20.496728897094727
1.67845361328125,-15.721704483032227,7.699643611907959,19.781572341918945
1.688462646484375,-16.996824264526367,6.875906467437744,17.824331283569336
1.69847265625,-18.065202713012695,6.564025402069092,14.974676132202148
1.70845166015625,-18.406885147094727,6.225374698638916,11.818282127380371
1.7184638671875,-18.124773025512695,6.009634971618652,9.118518829345703
1.72844287109375,-17.546855926513672,5.6873979568481445,6.934122085571289
1.738452880859375,-16.863693237304688,5.269786357879639,5.170236587524414
1.748462890625,-16.047462463378906,4.988287448883057,3.6028339862823486
1.75844189453125,-15.07361888885498,4.681976318359375,2.2327969074249268
1.768451904296875,-14.017202377319336,4.275254249572754,1.015175223350525
1.778461669921875,-12.720146179199219,3.588433265686035,-0.009606189094483852
1.78844091796875,-11.276561737060547,2.846881151199341,-1.0270475149154663
1.79845068359375,-10.083137512207031,2.9674322605133057,-1.9938300848007202
1.808429931640625,-9.065290451049805,3.199125289916992,-2.5772387981414795
1.818439697265625,-8.195220947265625,2.9438204765319824,-2.594968795776367
1.828449951171875,-7.4668731689453125,2.3813302516937256,-2.4204065799713135
1.838428955078125,-6.822303295135498,1.9203062057495117,-2.3476970195770264
1.84843896484375,-6.251780986785889,1.6868276596069336,-2.328807830810547
1.858447998046875,-5.627863883972168,1.3089491128921509,-2.3516640663146973
1.868427734375,-4.944684028625488,0.6323552131652832,-2.5938944816589355
1.87843701171875,-4.2627058029174805,0.2068289965391159,-3.0813183784484863
1.888416748046875,-3.5571188926696777,0.0952923521399498,-3.7195310592651367
1.898426025390625,-2.829843759536743,0.17426785826683044,-4.333904266357422
1.90843603515625,-2.0817694664001465,0.314018577337265,-4.823084354400635
1.918414794921875,-1.4064671993255615,0.4421072006225586,-5.094671726226807
1.928425048828125,-0.9283720850944519,0.5843836665153503,-5.123046875
1.93840380859375,-0.5602471232414246,0.7231811285018921,-4.998028755187988
1.9484140625,-0.2246382087469101,0.7937724590301514,-4.780552864074707
1.958423828125,0.06095925718545914,0.7424896359443665,-4.495691299438477
1.96840283203125,0.3876502811908722,0.5003459453582764,-4.1921491622924805
1.978412841796875,0.7546908259391785,0.2600710988044739,-3.9924380779266357
1.988422607421875,1.0933624505996704,0.24806076288223267,-3.920835256576538
1.99840185546875,1.3835092782974243,0.36264556646347046,-4.00228214263916
2.00841162109375,1.6833910942077637,0.5326052904129028,-4.126163005828857
2.018390869140625,2.012171506881714,0.6687665581703186,-4.222978591918945
2.028400634765625,2.2448368072509766,0.7607694864273071,-4.237922191619873
2.038409912109375,2.374093532562256,0.8604637980461121,-4.227273941040039
2.0483896484375,2.4417195320129395,0.9493920803070068,-4.262019634246826
2.05839990234375,2.4085018634796143,0.9479851126670837,-4.2930145263671875
2.068408935546875,2.4009947776794434,0.779405951499939,-4.349644660949707
2.078388916015625,2.4748623371124268,0.5781247615814209,-4.476799011230469
2.08839794921875,2.574796676635742,0.4568460285663605,-4.608076572418213
2.098377685546875,2.711322546005249,0.4603736996650696,-4.729233264923096
2.108386962890625,2.9186208248138428,0.5743820071220398,-4.880055904388428
2.11839697265625,3.149787664413452,0.616888165473938,-5.014255523681641
2.1283759765625,3.196892738342285,0.6282486915588379,-5.090935707092285
2.138385986328125,3.074838638305664,0.6610280871391296,-5.132307052612305
2.14836474609375,2.8879594802856445,0.6571846008300781,-5.195127964019775
2.158375,2.6704280376434326,0.4980538785457611,-5.233877182006836
2.168384765625,2.5379586219787598,0.32733353972435,-5.333008766174316
2.178364013671875,2.4858005046844482,0.19824226200580597,-5.569440841674805
2.1883740234375,2.443915367126465,0.122244693338871,-5.81899881362915
2.198384033203125,2.44392466545105,0.09328851848840714,-5.982792377471924
2.208363037109375,2.4962902069091797,0.11675363034009933,-6.041018009185791
2.218373046875,2.5320682525634766,0.16169628500938416,-6.090389728546143
2.22835205078125,2.536407232284546,0.3300514817237854,-6.151078224182129
2.23836181640625,2.4934496879577637,0.6274211406707764,-6.256811618804932
2.248370849609375,2.3095130920410156,0.8422671556472778,-6.346194744110107
2.258350830078125,1.9379444122314453,0.9508126378059387,-6.605756759643555
2.26835986328125,1.399416208267212,0.7488209009170532,-6.495658874511719
2.278339599609375,0.8393635749816895,0.4893026053905487,-6.071042537689209
2.2883486328125,0.31432193517684937,0.36597082018852234,-5.701141357421875
2.29835888671875,-0.05466155707836151,0.41769081354141235,-5.446152210235596
2.308337646484375,-0.23811021447181702,0.4492564797401428,-5.195359230041504
2.318347900390625,-0.271579384803772,0.4457889795303345,-4.910555839538574
2.32835791015625,-0.18252061307430267,0.39583155512809753,-4.572420597076416
2.3383369140625,-0.06683027744293213,0.29229679703712463,-4.110950946807861
2.348346923828125,-0.004301115404814482,0.13047564029693604,-3.5776748657226562
2.358325927734375,-0.053154174238443375,-0.023010218515992165,-3.1739768981933594
2.3683359375,-0.23294763267040253,-0.18606971204280853,-2.901829242706299
2.378345703125,-0.5831055641174316,-0.4017544984817505,-2.585486650466919
2.388324951171875,-0.8237770795822144,-0.4355708062648773,-2.1301651000976562
2.398334716796875,-0.9670906662940979,-0.333903968334198,-1.737630844116211
2.408344970703125,-1.009434700012207,-0.03841530904173851,-1.4087491035461426
2.418323974609375,-0.9878215193748474,0.049717120826244354,-1.0256400108337402
2.428333984375,-0.9400792717933655,-0.15590794384479523,-0.6603391766548157
2.43831298828125,-0.8741974234580994,-0.41068676114082336,-0.458591103553772
2.448322998046875,-0.8645877242088318,-0.6567074060440063,-0.5148215889930725
2.45833203125,-0.8946753740310669,-0.7356548309326172,-0.6811837553977966
2.468311767578125,-0.8963267803192139,-0.5948191285133362,-0.8498026132583618
2.478321044921875,-0.8384028077125549,-0.33297473192214966,-1.0075743198394775
2.48830078125,-0.7393749952316284,-0.010078169405460358,-1.1254535913467407
2.49831005859375,-0.5420967936515808,0.17241987586021423,-1.2011526823043823
2.50831982421875,-0.3411143720149994,0.30588603019714355,-1.0861014127731323
2.518298583984375,-0.3022826910018921,0.12359015643596649,-0.7963542938232422
2.528308837890625,-0.3754253387451172,-0.16358809173107147,-0.4695335626602173
2.538318603515625,-0.45306095480918884,-0.3315410017967224,-0.29607176780700684
2.5482978515625,-0.5841076970100403,-0.47059184312820435,-0.26228076219558716
2.558307861328125,-0.654610276222229,-0.3415718972682953,-0.13437722623348236
2.568286865234375,-0.5806977152824402,-0.16246019303798676,-0.10586995631456375
2.578296875,-0.5219382047653198,0.09036658704280853,-0.16248902678489685
2.588306640625,-0.5605372786521912,0.37205445766448975,-0.12656430900096893
2.598285888671875,-0.5388702154159546,0.36914774775505066,0.041398871690034866
2.608295654296875,-0.5605408549308777,0.12640516459941864,0.12380373477935791
2.618305908203125,-0.6391751766204834,-0.11081906408071518,0.06301245093345642
2.62828466796875,-0.6843639612197876,-0.16760776937007904,-0.024612469598650932
2.638294921875,-0.7116696238517761,-0.03266230970621109,-0.04809471219778061
2.648273681640625,-0.701367974281311,0.11222057789564133,-0.12209384143352509
2.658283935546875,-0.6757762432098389,0.2197842001914978,-0.20662444829940796
2.66829296875,-0.6595792174339294,0.34769952297210693,-0.1964985728263855
2.67827294921875,-0.6792289018630981,0.4008510112762451,-0.17101441323757172
2.688281982421875,-0.6981067061424255,0.36872798204421997,-0.14756768941879272
2.69826171875,-0.6630352735519409,0.253442645072937,-0.059627171605825424
2.70827099609375,-0.6350648999214172,0.05631013959646225,0.04142621159553528
2.718249755859375,-0.5839875936508179,-0.11809637397527695,0.1415516585111618
2.728228759765625,-0.536972165107727,-0.21268253028392792,0.21489670872688293
2.73823876953125,-0.49852651357650757,-0.1565150022506714,0.1812271624803543
2.74824853515625,-0.41677331924438477,-0.03732069581747055,0.0843123346567154
2.758227783203125,-0.3831661343574524,0.05527643859386444,-0.037051551043987274
2.768237548828125,-0.3676590621471405,0.10265035182237625,-0.11310690641403198
2.778216796875,-0.38804709911346436,0.194968119263649,-0.12289153784513474
2.788226806640625,-0.4638785123825073,0.3288617432117462,-0.0961531400680542
2.79823681640625,-0.5735927820205688,0.3499852418899536,-9.078183211386204e-05
2.8082158203125,-0.6090508699417114,0.23169350624084473,0.11714449524879456
2.818225830078125,-0.5069237947463989,0.1283472776412964,0.19175055623054504
2.828204833984375,-0.3699726164340973,0.06399465352296829,0.23279200494289398
2.838214599609375,-0.23150430619716644,0.044899895787239075,0.2240084558725357
2.848223876953125,-0.13823002576828003,0.01179919857531786,0.08923360705375671
2.85820361328125,-0.11433999240398407,-0.06205151602625847,-0.10927168279886246
2.868212890625,-0.16769854724407196,-0.10591164976358414,-0.2477153092622757
2.878222900390625,-0.27429908514022827,-0.06291313469409943,-0.21441496908664703
2.888201904296875,-0.4406326711177826,0.013229835778474808,-0.15511862933635712
2.8982119140625,-0.4468914568424225,0.005887197330594063,0.015872394666075706
2.90819189453125,-0.35294657945632935,-0.14033234119415283,0.1254127323627472
